tiempo,muestravelr_izq,velr_der,sensor_izq,sensor_frontal_izq,sensor_frontal_der,sensor_der,imu_acc_x,imu_acc_y,imu_w_x,imu_w_y,imu_m_x,imu_m_y
3399.450815,0.000000,-1.000000,0.140000,21.000000,23.000000,12.000000,0.000000,0.000000,0.000000,0.000000,0.000000,0.000000,0.000000
3399.492187,0.010000,-0.980000,0.140000,21.000000,23.000000,12.000000,0.000000,0.000000,0.000000,0.000000,0.000000,0.000000,0.000000
3399.528547,0.020000,-0.959800,0.140000,21.000000,23.000000,12.000000,0.000000,0.000000,0.000000,0.000000,0.000000,0.000000,0.000000
3399.565919,0.030000,-0.939600,0.140000,21.000000,23.000000,12.000000,0.000000,0.000000,0.000000,0.000000,0.000000,0.000000,0.000000
3399.607609,0.040000,-0.919300,0.140000,21.000000,23.000000,12.000000,0.000000,0.000000,0.000000,0.000000,0.000000,0.000000,0.000000
3399.653651,0.050000,-0.898900,0.140000,21.000000,23.000000,12.000000,0.000000,0.000000,0.000000,0.000000,0.000000,0.000000,0.000000
3399.680675,0.060000,-0.878500,0.140000,21.000000,23.000000,12.000000,0.000000,0.000000,0.000000,0.000000,0.000000,0.000000,0.000000
3399.721326,0.069900,-0.858000,0.140000,21.000000,23.000000,12.000000,0.000000,0.000000,0.000000,0.000000,0.000000,0.000000,0.000000
3399.758141,0.079900,-0.837500,0.140000,21.000000,23.000000,12.000000,0.000000,0.000000,0.000000,0.000000,0.000000,0.000000,0.000000
3399.799185,0.089900,-0.816900,0.140000,21.000000,23.000000,12.000000,0.000000,0.000000,0.000000,0.000000,0.000000,0.000000,0.000000
3399.839221,0.099800,-0.796300,0.140000,21.000000,23.000000,12.000000,0.000000,0.000000,0.000000,0.000000,0.000000,0.000000,0.000000
3399.873180,0.109800,-0.775700,0.140000,21.000000,23.000000,12.000000,0.000000,0.000000,0.000000,0.000000,0.000000,0.000000,0.000000
3399.913760,0.119700,-0.755100,0.140000,21.000000,23.000000,12.000000,0.000000,0.000000,0.000000,0.000000,0.000000,0.000000,0.000000
3399.960075,0.129600,-0.734500,0.140000,21.000000,23.000000,12.000000,0.000000,0.000000,0.000000,0.000000,0.000000,0.000000,0.000000
3400.006117,0.139500,-0.713900,0.140000,21.000000,23.000000,12.000000,0.000000,0.000000,0.000000,0.000000,0.000000,0.000000,0.000000
3400.030139,0.149400,-0.693300,0.140000,21.000000,23.000000,12.000000,0.000000,0.000000,0.000000,0.000000,0.000000,0.000000,0.000000
3400.065330,0.159300,-0.672700,0.140000,21.000000,23.000000,12.000000,0.000000,0.000000,0.000000,0.000000,0.000000,0.000000,0.000000
3400.106196,0.169200,-0.652100,0.140000,21.000000,23.000000,12.000000,0.000000,0.000000,0.000000,0.000000,0.000000,0.000000,0.000000
3400.151182,0.179000,-0.631600,0.140000,21.000000,23.000000,12.000000,0.000000,0.000000,0.000000,0.000000,0.000000,0.000000,0.000000
3400.186214,0.188900,-0.611100,0.140000,21.000000,23.000000,12.000000,0.000000,0.000000,0.000000,0.000000,0.000000,0.000000,0.000000
3400.221188,0.198700,-0.590600,0.140000,21.000000,23.000000,12.000000,0.000000,0.000000,0.000000,0.000000,0.000000,0.000000,0.000000
3400.258206,0.208500,-0.570300,0.140000,21.000000,23.000000,12.000000,0.000000,0.000000,0.000000,0.000000,0.000000,0.000000,0.000000
3400.315155,0.218200,-0.550000,0.140000,21.000000,23.000000,12.000000,0.000000,0.000000,0.000000,0.000000,0.000000,0.000000,0.000000
3400.337175,0.228000,-0.529700,0.140000,21.000000,23.000000,12.000000,0.000000,0.000000,0.000000,0.000000,0.000000,0.000000,0.000000
3400.378201,0.237700,-0.509600,0.140000,21.000000,23.000000,12.000000,0.000000,0.000000,0.000000,0.000000,0.000000,0.000000,0.000000
3400.413691,0.247400,-0.489500,0.140000,21.000000,23.000000,12.000000,0.000000,0.000000,0.000000,0.000000,0.000000,0.000000,0.000000
3400.450258,0.257100,-0.469500,0.140000,21.000000,23.000000,12.000000,0.000000,0.000000,0.000000,0.000000,0.000000,0.000000,0.000000
3400.507483,0.266700,-0.449600,0.140000,21.000000,23.000000,12.000000,0.000000,0.000000,0.000000,0.000000,0.000000,0.000000,0.000000
3400.556527,0.276400,-0.429900,0.140000,21.000000,23.000000,12.000000,0.000000,0.000000,0.000000,0.000000,0.000000,0.000000,0.000000
3400.566536,0.286000,-0.410200,0.140000,21.000000,23.000000,12.000000,0.000000,0.000000,0.000000,0.000000,0.000000,0.000000,0.000000
3400.605478,0.295500,-0.390700,0.140000,21.000000,23.000000,12.000000,0.000000,0.000000,0.000000,0.000000,0.000000,0.000000,0.000000
3400.643198,0.305100,-0.371300,0.140000,21.000000,23.000000,12.000000,0.000000,0.000000,0.000000,0.000000,0.000000,0.000000,0.000000
3400.684186,0.314600,-0.352000,0.140000,21.000000,23.000000,12.000000,0.000000,0.000000,0.000000,0.000000,0.000000,0.000000,0.000000
3400.724219,0.324000,-0.332900,0.140000,21.000000,23.000000,12.000000,0.000000,0.000000,0.000000,0.000000,0.000000,0.000000,0.000000
3400.757776,0.333500,-0.314000,0.140000,21.000000,23.000000,12.000000,0.000000,0.000000,0.000000,0.000000,0.000000,0.000000,0.000000
3400.798777,0.342900,-0.295200,0.140000,21.000000,23.000000,12.000000,0.000000,0.000000,0.000000,0.000000,0.000000,0.000000,0.000000
3400.853181,0.352300,-0.276500,0.140000,21.000000,23.000000,12.000000,0.000000,0.000000,0.000000,0.000000,0.000000,0.000000,0.000000
3400.893217,0.361600,-0.258000,0.140000,21.000000,23.000000,12.000000,0.000000,0.000000,0.000000,0.000000,0.000000,0.000000,0.000000
3400.913201,0.370900,-0.239700,0.140000,21.000000,23.000000,12.000000,0.000000,0.000000,0.000000,0.000000,0.000000,0.000000,0.000000
3400.950212,0.380200,-0.221600,0.140000,21.000000,23.000000,12.000000,0.000000,0.000000,0.000000,0.000000,0.000000,0.000000,0.000000
3400.996154,0.389400,-0.203700,0.140000,21.000000,23.000000,12.000000,0.000000,0.000000,0.000000,0.000000,0.000000,0.000000,0.000000
3401.029185,0.398600,-0.186000,0.140000,21.000000,23.000000,12.000000,0.000000,0.000000,0.000000,0.000000,0.000000,0.000000,0.000000
3401.066218,0.407800,-0.168400,0.140000,21.000000,23.000000,12.000000,0.000000,0.000000,0.000000,0.000000,0.000000,0.000000,0.000000
3401.105784,0.416900,-0.151100,0.140000,21.000000,23.000000,12.000000,0.000000,0.000000,0.000000,0.000000,0.000000,0.000000,0.000000
3401.142212,0.425900,-0.134000,0.140000,21.000000,23.000000,12.000000,0.000000,0.000000,0.000000,0.000000,0.000000,0.000000,0.000000
3401.209187,0.435000,-0.117100,0.140000,21.000000,23.000000,12.000000,0.000000,0.000000,0.000000,0.000000,0.000000,0.000000,0.000000
3401.222199,0.443900,-0.100500,0.140000,21.000000,23.000000,12.000000,0.000000,0.000000,0.000000,0.000000,0.000000,0.000000,0.000000
3401.259232,0.452900,-0.084000,0.140000,21.000000,23.000000,12.000000,0.000000,0.000000,0.000000,0.000000,0.000000,0.000000,0.000000
3401.297238,0.461800,-0.067800,0.140000,21.000000,23.000000,12.000000,0.000000,0.000000,0.000000,0.000000,0.000000,0.000000,0.000000
3401.335208,0.470600,-0.051800,0.140000,21.000000,23.000000,12.000000,0.000000,0.000000,0.000000,0.000000,0.000000,0.000000,0.000000
3401.394175,0.479400,-0.036100,0.140000,21.000000,23.000000,12.000000,0.000000,0.000000,0.000000,0.000000,0.000000,0.000000,0.000000
3401.441228,0.488200,-0.020600,0.140000,21.000000,23.000000,12.000000,0.000000,0.000000,0.000000,0.000000,0.000000,0.000000,0.000000
3401.450226,0.496900,-0.005400,0.140000,21.000000,23.000000,12.000000,0.000000,0.000000,0.000000,0.000000,0.000000,0.000000,0.000000
3401.486788,0.505500,0.009500,0.140000,21.000000,23.000000,12.000000,0.000000,0.000000,0.000000,0.000000,0.000000,0.000000,0.000000
3401.527300,0.514100,0.024200,0.140000,21.000000,23.000000,12.000000,0.000000,0.000000,0.000000,0.000000,0.000000,0.000000,0.000000
3401.583189,0.522700,0.038700,0.140000,21.000000,23.000000,12.000000,0.000000,0.000000,0.000000,0.000000,0.000000,0.000000,0.000000
3401.617220,0.531200,0.052800,0.140000,21.000000,23.000000,12.000000,0.000000,0.000000,0.000000,0.000000,0.000000,0.000000,0.000000
3401.638239,0.539600,0.066700,0.140000,21.000000,23.000000,12.000000,0.000000,0.000000,0.000000,0.000000,0.000000,0.000000,0.000000
3401.675263,0.548000,0.080300,0.140000,21.000000,23.000000,12.000000,0.000000,0.000000,0.000000,0.000000,0.000000,0.000000,0.000000
3401.712213,0.556400,0.093700,0.140000,21.000000,23.000000,12.000000,0.000000,0.000000,0.000000,0.000000,0.000000,0.000000,0.000000
3401.756276,0.564600,0.106700,0.140000,21.000000,23.000000,12.000000,0.000000,0.000000,0.000000,0.000000,0.000000,0.000000,0.000000
3401.797314,0.572900,0.119500,0.140000,21.000000,23.000000,12.000000,0.000000,0.000000,0.000000,0.000000,0.000000,0.000000,0.000000
3401.826794,0.581000,0.131900,0.140000,21.000000,23.000000,12.000000,0.000000,0.000000,0.000000,0.000000,0.000000,0.000000,0.000000
3401.863794,0.589100,0.144100,0.140000,21.000000,23.000000,12.000000,0.000000,0.000000,0.000000,0.000000,0.000000,0.000000,0.000000
3401.923258,0.597200,0.155900,0.140000,21.000000,23.000000,12.000000,0.000000,0.000000,0.000000,0.000000,0.000000,0.000000,0.000000
3401.942264,0.605200,0.167500,0.140000,21.000000,23.000000,12.000000,0.000000,0.000000,0.000000,0.000000,0.000000,0.000000,0.000000
3401.980311,0.613100,0.178700,0.140000,21.000000,23.000000,12.000000,0.000000,0.000000,0.000000,0.000000,0.000000,0.000000,0.000000
3402.010393,0.621000,0.189700,0.140000,21.000000,23.000000,12.000000,0.000000,0.000000,0.000000,0.000000,0.000000,0.000000,0.000000
3402.047801,0.628800,0.200300,0.140000,21.000000,23.000000,12.000000,0.000000,0.000000,0.000000,0.000000,0.000000,0.000000,0.000000
3402.112267,0.636500,0.210600,0.140000,21.000000,23.000000,12.000000,0.000000,0.000000,0.000000,0.000000,0.000000,0.000000,0.000000
3402.140293,0.644200,0.220600,0.140000,21.000000,23.000000,12.000000,0.000000,0.000000,0.000000,0.000000,0.000000,0.000000,0.000000
3402.163314,0.651800,0.230300,0.140000,21.000000,23.000000,12.000000,0.000000,0.000000,0.000000,0.000000,0.000000,0.000000,0.000000
3402.199383,0.659400,0.239700,0.140000,21.000000,23.000000,12.000000,0.000000,0.000000,0.000000,0.000000,0.000000,0.000000,0.000000
3402.236227,0.666900,0.248700,0.140000,21.000000,23.000000,12.000000,0.000000,0.000000,0.000000,0.000000,0.000000,0.000000,0.000000
3402.279191,0.674300,0.257400,0.140000,21.000000,23.000000,12.000000,0.000000,0.000000,0.000000,0.000000,0.000000,0.000000,0.000000
3402.319227,0.681600,0.265800,0.140000,21.000000,23.000000,12.000000,0.000000,0.000000,0.000000,0.000000,0.000000,0.000000,0.000000
3402.346794,0.688900,0.273900,0.140000,21.000000,23.000000,12.000000,0.000000,0.000000,0.000000,0.000000,0.000000,0.000000,0.000000
3402.387794,0.696100,0.281600,0.140000,21.000000,23.000000,12.000000,0.000000,0.000000,0.000000,0.000000,0.000000,0.000000,0.000000
3402.449190,0.703300,0.289000,0.140000,21.000000,23.000000,12.000000,0.000000,0.000000,0.000000,0.000000,0.000000,0.000000,0.000000
3402.462202,0.710400,0.296100,0.140000,21.000000,23.000000,12.000000,0.000000,0.000000,0.000000,0.000000,0.000000,0.000000,0.000000
3402.500226,0.717400,0.302900,0.140000,21.000000,23.000000,12.000000,0.000000,0.000000,0.000000,0.000000,0.000000,0.000000,0.000000
3402.535219,0.724300,0.309300,0.140000,21.000000,23.000000,12.000000,0.000000,0.000000,0.000000,0.000000,0.000000,0.000000,0.000000
3402.572269,0.731100,0.315400,0.140000,21.000000,23.000000,12.000000,0.000000,0.000000,0.000000,0.000000,0.000000,0.000000,0.000000
3402.628429,0.737900,0.321100,0.140000,21.000000,23.000000,12.000000,0.000000,0.000000,0.000000,0.000000,0.000000,0.000000,0.000000
3402.669466,0.744600,0.326600,0.140000,21.000000,23.000000,12.000000,0.000000,0.000000,0.000000,0.000000,0.000000,0.000000,0.000000
3402.686810,0.751300,0.331700,0.140000,21.000000,23.000000,12.000000,0.000000,0.000000,0.000000,0.000000,0.000000,0.000000,0.000000
3402.723811,0.757800,0.336500,0.140000,21.000000,23.000000,12.000000,0.000000,0.000000,0.000000,0.000000,0.000000,0.000000,0.000000
3402.760420,0.764300,0.340900,0.140000,21.000000,23.000000,12.000000,0.000000,0.000000,0.000000,0.000000,0.000000,0.000000,0.000000
3402.806181,0.770700,0.345000,0.140000,21.000000,23.000000,12.000000,0.000000,0.000000,0.000000,0.000000,0.000000,0.000000,0.000000
3402.847752,0.777100,0.348800,0.140000,21.000000,23.000000,12.000000,0.000000,0.000000,0.000000,0.000000,0.000000,0.000000,0.000000
3402.871227,0.783300,0.352200,0.140000,21.000000,23.000000,12.000000,0.000000,0.000000,0.000000,0.000000,0.000000,0.000000,0.000000
3402.912239,0.789500,0.355400,0.140000,21.000000,23.000000,12.000000,0.000000,0.000000,0.000000,0.000000,0.000000,0.000000,0.000000
3402.967311,0.795600,0.358200,0.140000,21.000000,23.000000,12.000000,0.000000,0.000000,0.000000,0.000000,0.000000,0.000000,0.000000
3402.988330,0.801600,0.360600,0.140000,21.000000,23.000000,12.000000,0.000000,0.000000,0.000000,0.000000,0.000000,0.000000,0.000000
3403.031364,0.807600,0.362800,0.140000,21.000000,23.000000,12.000000,0.000000,0.000000,0.000000,0.000000,0.000000,0.000000,0.000000
3403.059821,0.813400,0.364600,0.140000,21.000000,23.000000,12.000000,0.000000,0.000000,0.000000,0.000000,0.000000,0.000000,0.000000
3403.096402,0.819200,0.366100,0.140000,21.000000,23.000000,12.000000,0.000000,0.000000,0.000000,0.000000,0.000000,0.000000,0.000000
3403.159787,0.824900,0.367300,0.140000,21.000000,23.000000,12.000000,0.000000,0.000000,0.000000,0.000000,0.000000,0.000000,0.000000
3403.170797,0.830500,0.368200,0.140000,21.000000,23.000000,12.000000,0.000000,0.000000,0.000000,0.000000,0.000000,0.000000,0.000000
3403.211825,0.836000,0.368700,0.140000,21.000000,23.000000,12.000000,0.000000,0.000000,0.000000,0.000000,0.000000,0.000000,0.000000
3403.248295,0.841500,0.369000,0.140000,21.000000,23.000000,12.000000,0.000000,0.000000,0.000000,0.000000,0.000000,0.000000,0.000000
3403.284825,0.846800,0.368900,0.140000,21.000000,23.000000,12.000000,0.000000,0.000000,0.000000,0.000000,0.000000,0.000000,0.000000
3403.342714,0.852100,0.368600,0.140000,21.000000,23.000000,12.000000,0.000000,0.000000,0.000000,0.000000,0.000000,0.000000,0.000000
3403.374743,0.857300,0.367900,0.140000,21.000000,23.000000,12.000000,0.000000,0.000000,0.000000,0.000000,0.000000,0.000000,0.000000
3403.394761,0.862400,0.366900,0.140000,21.000000,23.000000,12.000000,0.000000,0.000000,0.000000,0.000000,0.000000,0.000000,0.000000
3403.432211,0.867400,0.365600,0.140000,21.000000,23.000000,12.000000,0.000000,0.000000,0.000000,0.000000,0.000000,0.000000,0.000000
3403.473250,0.872400,0.364100,0.140000,21.000000,23.000000,12.000000,0.000000,0.000000,0.000000,0.000000,0.000000,0.000000,0.000000
3403.524181,0.877200,0.362200,0.140000,21.000000,23.000000,12.000000,0.000000,0.000000,0.000000,0.000000,0.000000,0.000000,0.000000
3403.565754,0.882000,0.360100,0.140000,21.000000,23.000000,12.000000,0.000000,0.000000,0.000000,0.000000,0.000000,0.000000,0.000000
3403.583830,0.886600,0.357600,0.140000,21.000000,23.000000,12.000000,0.000000,0.000000,0.000000,0.000000,0.000000,0.000000,0.000000
3403.620280,0.891200,0.354900,0.140000,21.000000,23.000000,12.000000,0.000000,0.000000,0.000000,0.000000,0.000000,0.000000,0.000000
3403.657288,0.895700,0.351900,0.140000,21.000000,23.000000,12.000000,0.000000,0.000000,0.000000,0.000000,0.000000,0.000000,0.000000
3403.706348,0.900100,0.348600,0.140000,21.000000,23.000000,12.000000,0.000000,0.000000,0.000000,0.000000,0.000000,0.000000,0.000000
3403.750389,0.904400,0.345100,0.140000,21.000000,23.000000,12.000000,0.000000,0.000000,0.000000,0.000000,0.000000,0.000000,0.000000
3403.772243,0.908600,0.341300,0.140000,21.000000,23.000000,12.000000,0.000000,0.000000,0.000000,0.000000,0.000000,0.000000,0.000000
3403.809244,0.912800,0.337200,0.140000,21.000000,23.000000,12.000000,0.000000,0.000000,0.000000,0.000000,0.000000,0.000000,0.000000
3403.846306,0.916800,0.332900,0.140000,21.000000,23.000000,12.000000,0.000000,0.000000,0.000000,0.000000,0.000000,0.000000,0.000000
3403.885176,0.920800,0.328300,0.140000,21.000000,23.000000,12.000000,0.000000,0.000000,0.000000,0.000000,0.000000,0.000000,0.000000
3403.932218,0.924600,0.323500,0.140000,21.000000,23.000000,12.000000,0.000000,0.000000,0.000000,0.000000,0.000000,0.000000,0.000000
3403.956750,0.928400,0.318400,0.140000,21.000000,23.000000,12.000000,0.000000,0.000000,0.000000,0.000000,0.000000,0.000000,0.000000
3403.993416,0.932000,0.313100,0.140000,21.000000,23.000000,12.000000,0.000000,0.000000,0.000000,0.000000,0.000000,0.000000,0.000000
3404.049223,0.935600,0.307600,0.140000,21.000000,23.000000,12.000000,0.000000,0.000000,0.000000,0.000000,0.000000,0.000000,0.000000
3404.073246,0.939100,0.301800,0.140000,21.000000,23.000000,12.000000,0.000000,0.000000,0.000000,0.000000,0.000000,0.000000,0.000000
3404.113282,0.942500,0.295800,0.140000,21.000000,23.000000,12.000000,0.000000,0.000000,0.000000,0.000000,0.000000,0.000000,0.000000
3404.145250,0.945800,0.289600,0.140000,21.000000,23.000000,12.000000,0.000000,0.000000,0.000000,0.000000,0.000000,0.000000,0.000000
3404.181684,0.949000,0.283200,0.140000,21.000000,23.000000,12.000000,0.000000,0.000000,0.000000,0.000000,0.000000,0.000000,0.000000
3404.241524,0.952100,0.276500,0.140000,21.000000,23.000000,12.000000,0.000000,0.000000,0.000000,0.000000,0.000000,0.000000,0.000000
3404.285562,0.955100,0.269700,0.140000,21.000000,23.000000,12.000000,0.000000,0.000000,0.000000,0.000000,0.000000,0.000000,0.000000
3404.292569,0.958000,0.262600,0.140000,21.000000,23.000000,12.000000,0.000000,0.000000,0.000000,0.000000,0.000000,0.000000,0.000000
3404.333424,0.960800,0.255400,0.140000,21.000000,23.000000,12.000000,0.000000,0.000000,0.000000,0.000000,0.000000,0.000000,0.000000
3404.370278,0.963600,0.248000,0.140000,21.000000,23.000000,12.000000,0.000000,0.000000,0.000000,0.000000,0.000000,0.000000,0.000000
3404.422192,0.966200,0.240400,0.140000,21.000000,23.000000,12.000000,0.000000,0.000000,0.000000,0.000000,0.000000,0.000000,0.000000
3404.468246,0.968700,0.232600,0.140000,21.000000,23.000000,12.000000,0.000000,0.000000,0.000000,0.000000,0.000000,0.000000,0.000000
3404.481258,0.971100,0.224700,0.140000,21.000000,23.000000,12.000000,0.000000,0.000000,0.000000,0.000000,0.000000,0.000000,0.000000
3404.517848,0.973500,0.216600,0.140000,21.000000,23.000000,12.000000,0.000000,0.000000,0.000000,0.000000,0.000000,0.000000,0.000000
3404.554850,0.975700,0.208400,0.140000,21.000000,23.000000,12.000000,0.000000,0.000000,0.000000,0.000000,0.000000,0.000000,0.000000
3404.604181,0.977900,0.200000,0.140000,21.000000,23.000000,12.000000,0.000000,0.000000,0.000000,0.000000,0.000000,0.000000,0.000000
3404.647389,0.979900,0.191400,0.140000,21.000000,23.000000,12.000000,0.000000,0.000000,0.000000,0.000000,0.000000,0.000000,0.000000
3404.669322,0.981900,0.182800,0.140000,21.000000,23.000000,12.000000,0.000000,0.000000,0.000000,0.000000,0.000000,0.000000,0.000000
3404.706173,0.983700,0.174000,0.140000,21.000000,23.000000,12.000000,0.000000,0.000000,0.000000,0.000000,0.000000,0.000000,0.000000
3404.743275,0.985400,0.165000,0.140000,21.000000,23.000000,12.000000,0.000000,0.000000,0.000000,0.000000,0.000000,0.000000,0.000000
3404.784178,0.987100,0.156000,0.140000,21.000000,23.000000,12.000000,0.000000,0.000000,0.000000,0.000000,0.000000,0.000000,0.000000
3404.831220,0.988700,0.146800,0.140000,21.000000,23.000000,12.000000,0.000000,0.000000,0.000000,0.000000,0.000000,0.000000,0.000000
3404.853855,0.990100,0.137600,0.140000,21.000000,23.000000,12.000000,0.000000,0.000000,0.000000,0.000000,0.000000,0.000000,0.000000
3404.894856,0.991500,0.128200,0.140000,21.000000,23.000000,12.000000,0.000000,0.000000,0.000000,0.000000,0.000000,0.000000,0.000000
3404.944225,0.992700,0.118700,0.140000,21.000000,23.000000,12.000000,0.000000,0.000000,0.000000,0.000000,0.000000,0.000000,0.000000
3404.968247,0.993900,0.109200,0.140000,21.000000,23.000000,12.000000,0.000000,0.000000,0.000000,0.000000,0.000000,0.000000,0.000000
3405.006281,0.994900,0.099600,0.140000,21.000000,23.000000,12.000000,0.000000,0.000000,0.000000,0.000000,0.000000,0.000000,0.000000
3405.042290,0.995900,0.089900,0.140000,21.000000,23.000000,12.000000,0.000000,0.000000,0.000000,0.000000,0.000000,0.000000,0.000000
3405.078037,0.996700,0.080200,0.140000,21.000000,23.000000,12.000000,0.000000,0.000000,0.000000,0.000000,0.000000,0.000000,0.000000
3405.131086,0.997500,0.070400,0.140000,21.000000,23.000000,12.000000,0.000000,0.000000,0.000000,0.000000,0.000000,0.000000,0.000000
3405.177127,0.998200,0.060500,0.140000,21.000000,23.000000,12.000000,0.000000,0.000000,0.000000,0.000000,0.000000,0.000000,0.000000
3405.193848,0.998700,0.050600,0.140000,21.000000,23.000000,12.000000,0.000000,0.000000,0.000000,0.000000,0.000000,0.000000,0.000000
3405.229543,0.999200,0.040700,0.140000,21.000000,23.000000,12.000000,0.000000,0.000000,0.000000,0.000000,0.000000,0.000000,0.000000
3405.267320,0.999500,0.030800,0.140000,21.000000,23.000000,12.000000,0.000000,0.000000,0.000000,0.000000,0.000000,0.000000,0.000000
3405.310586,0.999800,0.020800,0.140000,21.000000,23.000000,12.000000,0.000000,0.000000,0.000000,0.000000,0.000000,0.000000,0.000000
3405.353641,0.999900,0.010800,0.140000,21.000000,23.000000,12.000000,0.000000,0.000000,0.000000,0.000000,0.000000,0.000000,0.000000
3405.377547,1.000000,0.000800,0.140000,21.000000,23.000000,12.000000,0.000000,0.000000,0.000000,0.000000,0.000000,0.000000,0.000000
3405.418543,1.000000,-0.009200,0.140000,21.000000,23.000000,12.000000,0.000000,0.000000,0.000000,0.000000,0.000000,0.000000,0.000000
3405.470170,0.999800,-0.019200,0.140000,21.000000,23.000000,12.000000,0.000000,0.000000,0.000000,0.000000,0.000000,0.000000,0.000000
3405.510206,0.999600,-0.029200,0.140000,21.000000,23.000000,12.000000,0.000000,0.000000,0.000000,0.000000,0.000000,0.000000,0.000000
3405.534228,0.999200,-0.039100,0.140000,21.000000,23.000000,12.000000,0.000000,0.000000,0.000000,0.000000,0.000000,0.000000,0.000000
3405.570123,0.998800,-0.049100,0.140000,21.000000,23.000000,12.000000,0.000000,0.000000,0.000000,0.000000,0.000000,0.000000,0.000000
3405.611339,0.998200,-0.059000,0.140000,21.000000,23.000000,12.000000,0.000000,0.000000,0.000000,0.000000,0.000000,0.000000,0.000000
3405.666122,0.997600,-0.068800,0.140000,21.000000,23.000000,12.000000,0.000000,0.000000,0.000000,0.000000,0.000000,0.000000,0.000000
3405.710162,0.996900,-0.078600,0.140000,21.000000,23.000000,12.000000,0.000000,0.000000,0.000000,0.000000,0.000000,0.000000,0.000000
3405.726175,0.996000,-0.088400,0.140000,21.000000,23.000000,12.000000,0.000000,0.000000,0.000000,0.000000,0.000000,0.000000,0.000000
3405.762869,0.995100,-0.098100,0.140000,21.000000,23.000000,12.000000,0.000000,0.000000,0.000000,0.000000,0.000000,0.000000,0.000000
3405.803871,0.994000,-0.107700,0.140000,21.000000,23.000000,12.000000,0.000000,0.000000,0.000000,0.000000,0.000000,0.000000,0.000000
3405.842241,0.992900,-0.117200,0.140000,21.000000,23.000000,12.000000,0.000000,0.000000,0.000000,0.000000,0.000000,0.000000,0.000000
3405.884273,0.991700,-0.126700,0.140000,21.000000,23.000000,12.000000,0.000000,0.000000,0.000000,0.000000,0.000000,0.000000,0.000000
3405.918454,0.990300,-0.136100,0.140000,21.000000,23.000000,12.000000,0.000000,0.000000,0.000000,0.000000,0.000000,0.000000,0.000000
3405.955450,0.988900,-0.145300,0.140000,21.000000,23.000000,12.000000,0.000000,0.000000,0.000000,0.000000,0.000000,0.000000,0.000000
3406.017529,0.987400,-0.154500,0.140000,21.000000,23.000000,12.000000,0.000000,0.000000,0.000000,0.000000,0.000000,0.000000,0.000000
3406.043553,0.985700,-0.163600,0.140000,21.000000,23.000000,12.000000,0.000000,0.000000,0.000000,0.000000,0.000000,0.000000,0.000000
3406.070578,0.984000,-0.172500,0.140000,21.000000,23.000000,12.000000,0.000000,0.000000,0.000000,0.000000,0.000000,0.000000,0.000000
3406.111348,0.982200,-0.181400,0.140000,21.000000,23.000000,12.000000,0.000000,0.000000,0.000000,0.000000,0.000000,0.000000,0.000000
3406.147121,0.980200,-0.190100,0.140000,21.000000,23.000000,12.000000,0.000000,0.000000,0.000000,0.000000,0.000000,0.000000,0.000000
3406.197301,0.978200,-0.198600,0.140000,21.000000,23.000000,12.000000,0.000000,0.000000,0.000000,0.000000,0.000000,0.000000,0.000000
3406.240340,0.976100,-0.207000,0.140000,21.000000,23.000000,12.000000,0.000000,0.000000,0.000000,0.000000,0.000000,0.000000,0.000000
3406.262877,0.973800,-0.215300,0.140000,21.000000,23.000000,12.000000,0.000000,0.000000,0.000000,0.000000,0.000000,0.000000,0.000000
3406.303881,0.971500,-0.223400,0.140000,21.000000,23.000000,12.000000,0.000000,0.000000,0.000000,0.000000,0.000000,0.000000,0.000000
3406.373177,0.969100,-0.231400,0.140000,21.000000,23.000000,12.000000,0.000000,0.000000,0.000000,0.000000,0.000000,0.000000,0.000000
3406.380184,0.966600,-0.239200,0.140000,21.000000,23.000000,12.000000,0.000000,0.000000,0.000000,0.000000,0.000000,0.000000,0.000000
3406.418218,0.964000,-0.246800,0.140000,21.000000,23.000000,12.000000,0.000000,0.000000,0.000000,0.000000,0.000000,0.000000,0.000000
3406.455356,0.961300,-0.254200,0.140000,21.000000,23.000000,12.000000,0.000000,0.000000,0.000000,0.000000,0.000000,0.000000,0.000000
3406.496138,0.958500,-0.261500,0.140000,21.000000,23.000000,12.000000,0.000000,0.000000,0.000000,0.000000,0.000000,0.000000,0.000000
3406.553163,0.955600,-0.268600,0.140000,21.000000,23.000000,12.000000,0.000000,0.000000,0.000000,0.000000,0.000000,0.000000,0.000000
3406.597191,0.952600,-0.275400,0.140000,21.000000,23.000000,12.000000,0.000000,0.000000,0.000000,0.000000,0.000000,0.000000,0.000000
3406.610214,0.949500,-0.282100,0.140000,21.000000,23.000000,12.000000,0.000000,0.000000,0.000000,0.000000,0.000000,0.000000,0.000000
3406.647887,0.946300,-0.288600,0.140000,21.000000,23.000000,12.000000,0.000000,0.000000,0.000000,0.000000,0.000000,0.000000,0.000000
3406.688127,0.943000,-0.294800,0.140000,21.000000,23.000000,12.000000,0.000000,0.000000,0.000000,0.000000,0.000000,0.000000,0.000000
3406.749202,0.939600,-0.300800,0.140000,21.000000,23.000000,12.000000,0.000000,0.000000,0.000000,0.000000,0.000000,0.000000,0.000000
3406.763214,0.936200,-0.306700,0.140000,21.000000,23.000000,12.000000,0.000000,0.000000,0.000000,0.000000,0.000000,0.000000,0.000000
3406.804252,0.932600,-0.312200,0.140000,21.000000,23.000000,12.000000,0.000000,0.000000,0.000000,0.000000,0.000000,0.000000,0.000000
3406.839541,0.929000,-0.317600,0.140000,21.000000,23.000000,12.000000,0.000000,0.000000,0.000000,0.000000,0.000000,0.000000,0.000000
3406.877318,0.925200,-0.322700,0.140000,21.000000,23.000000,12.000000,0.000000,0.000000,0.000000,0.000000,0.000000,0.000000,0.000000
3406.931149,0.921400,-0.327600,0.140000,21.000000,23.000000,12.000000,0.000000,0.000000,0.000000,0.000000,0.000000,0.000000,0.000000
3406.976189,0.917400,-0.332200,0.140000,21.000000,23.000000,12.000000,0.000000,0.000000,0.000000,0.000000,0.000000,0.000000,0.000000
3406.995894,0.913400,-0.336500,0.140000,21.000000,23.000000,12.000000,0.000000,0.000000,0.000000,0.000000,0.000000,0.000000,0.000000
3407.032532,0.909300,-0.340700,0.140000,21.000000,23.000000,12.000000,0.000000,0.000000,0.000000,0.000000,0.000000,0.000000,0.000000
3407.069464,0.905100,-0.344500,0.140000,21.000000,23.000000,12.000000,0.000000,0.000000,0.000000,0.000000,0.000000,0.000000,0.000000
3407.111583,0.900800,-0.348100,0.140000,21.000000,23.000000,12.000000,0.000000,0.000000,0.000000,0.000000,0.000000,0.000000,0.000000
3407.155622,0.896400,-0.351400,0.140000,21.000000,23.000000,12.000000,0.000000,0.000000,0.000000,0.000000,0.000000,0.000000,0.000000
3407.187652,0.891900,-0.354400,0.140000,21.000000,23.000000,12.000000,0.000000,0.000000,0.000000,0.000000,0.000000,0.000000,0.000000
3407.224554,0.887400,-0.357200,0.140000,21.000000,23.000000,12.000000,0.000000,0.000000,0.000000,0.000000,0.000000,0.000000,0.000000
3407.280179,0.882700,-0.359700,0.140000,21.000000,23.000000,12.000000,0.000000,0.000000,0.000000,0.000000,0.000000,0.000000,0.000000
3407.323218,0.878000,-0.361900,0.140000,21.000000,23.000000,12.000000,0.000000,0.000000,0.000000,0.000000,0.000000,0.000000,0.000000
3407.339221,0.873100,-0.363800,0.140000,21.000000,23.000000,12.000000,0.000000,0.000000,0.000000,0.000000,0.000000,0.000000,0.000000
3407.376231,0.868200,-0.365400,0.140000,21.000000,23.000000,12.000000,0.000000,0.000000,0.000000,0.000000,0.000000,0.000000,0.000000
3407.417183,0.863200,-0.366700,0.140000,21.000000,23.000000,12.000000,0.000000,0.000000,0.000000,0.000000,0.000000,0.000000,0.000000
3407.454151,0.858100,-0.367800,0.140000,21.000000,23.000000,12.000000,0.000000,0.000000,0.000000,0.000000,0.000000,0.000000,0.000000
3407.501194,0.852900,-0.368500,0.140000,21.000000,23.000000,12.000000,0.000000,0.000000,0.000000,0.000000,0.000000,0.000000,0.000000
3407.532315,0.847700,-0.368900,0.140000,21.000000,23.000000,12.000000,0.000000,0.000000,0.000000,0.000000,0.000000,0.000000,0.000000
3407.568973,0.842300,-0.369000,0.140000,21.000000,23.000000,12.000000,0.000000,0.000000,0.000000,0.000000,0.000000,0.000000,0.000000
3407.639036,0.836900,-0.368800,0.140000,21.000000,23.000000,12.000000,0.000000,0.000000,0.000000,0.000000,0.000000,0.000000,0.000000
3407.648044,0.831400,-0.368300,0.140000,21.000000,23.000000,12.000000,0.000000,0.000000,0.000000,0.000000,0.000000,0.000000,0.000000
3407.688081,0.825800,-0.367500,0.140000,21.000000,23.000000,12.000000,0.000000,0.000000,0.000000,0.000000,0.000000,0.000000,0.000000
3407.724114,0.820100,-0.366300,0.140000,21.000000,23.000000,12.000000,0.000000,0.000000,0.000000,0.000000,0.000000,0.000000,0.000000
3407.761147,0.814300,-0.364900,0.140000,21.000000,23.000000,12.000000,0.000000,0.000000,0.000000,0.000000,0.000000,0.000000,0.000000
3407.820147,0.808500,-0.363100,0.140000,21.000000,23.000000,12.000000,0.000000,0.000000,0.000000,0.000000,0.000000,0.000000,0.000000
3407.865189,0.802600,-0.361000,0.140000,21.000000,23.000000,12.000000,0.000000,0.000000,0.000000,0.000000,0.000000,0.000000,0.000000
3407.880202,0.796600,-0.358600,0.140000,21.000000,23.000000,12.000000,0.000000,0.000000,0.000000,0.000000,0.000000,0.000000,0.000000
3407.917371,0.790500,-0.355800,0.140000,21.000000,23.000000,12.000000,0.000000,0.000000,0.000000,0.000000,0.000000,0.000000,0.000000
3407.954334,0.784300,-0.352800,0.140000,21.000000,23.000000,12.000000,0.000000,0.000000,0.000000,0.000000,0.000000,0.000000,0.000000
3408.003151,0.778100,-0.349400,0.140000,21.000000,23.000000,12.000000,0.000000,0.000000,0.000000,0.000000,0.000000,0.000000,0.000000
3408.049193,0.771800,-0.345600,0.140000,21.000000,23.000000,12.000000,0.000000,0.000000,0.000000,0.000000,0.000000,0.000000,0.000000
3408.068915,0.765400,-0.341600,0.140000,21.000000,23.000000,12.000000,0.000000,0.000000,0.000000,0.000000,0.000000,0.000000,0.000000
3408.109914,0.758900,-0.337200,0.140000,21.000000,23.000000,12.000000,0.000000,0.000000,0.000000,0.000000,0.000000,0.000000,0.000000
3408.146915,0.752300,-0.332500,0.140000,21.000000,23.000000,12.000000,0.000000,0.000000,0.000000,0.000000,0.000000,0.000000,0.000000
3408.187966,0.745700,-0.327400,0.140000,21.000000,23.000000,12.000000,0.000000,0.000000,0.000000,0.000000,0.000000,0.000000,0.000000
3408.224999,0.739000,-0.322000,0.140000,21.000000,23.000000,12.000000,0.000000,0.000000,0.000000,0.000000,0.000000,0.000000,0.000000
3408.261498,0.732200,-0.316300,0.140000,21.000000,23.000000,12.000000,0.000000,0.000000,0.000000,0.000000,0.000000,0.000000,0.000000
3408.301534,0.725400,-0.310300,0.140000,21.000000,23.000000,12.000000,0.000000,0.000000,0.000000,0.000000,0.000000,0.000000,0.000000
3408.359994,0.718500,-0.303900,0.140000,21.000000,23.000000,12.000000,0.000000,0.000000,0.000000,0.000000,0.000000,0.000000,0.000000
3408.403018,0.711500,-0.297200,0.140000,21.000000,23.000000,12.000000,0.000000,0.000000,0.000000,0.000000,0.000000,0.000000,0.000000
3408.417030,0.704400,-0.290200,0.140000,21.000000,23.000000,12.000000,0.000000,0.000000,0.000000,0.000000,0.000000,0.000000,0.000000
3408.453911,0.697300,-0.282800,0.140000,21.000000,23.000000,12.000000,0.000000,0.000000,0.000000,0.000000,0.000000,0.000000,0.000000
3408.494911,0.690100,-0.275100,0.140000,21.000000,23.000000,12.000000,0.000000,0.000000,0.000000,0.000000,0.000000,0.000000,0.000000
3408.536153,0.682800,-0.267100,0.140000,21.000000,23.000000,12.000000,0.000000,0.000000,0.000000,0.000000,0.000000,0.000000,0.000000
3408.579192,0.675500,-0.258800,0.140000,21.000000,23.000000,12.000000,0.000000,0.000000,0.000000,0.000000,0.000000,0.000000,0.000000
3408.609497,0.668100,-0.250100,0.140000,21.000000,23.000000,12.000000,0.000000,0.000000,0.000000,0.000000,0.000000,0.000000,0.000000
3408.645762,0.660600,-0.241100,0.140000,21.000000,23.000000,12.000000,0.000000,0.000000,0.000000,0.000000,0.000000,0.000000,0.000000
3408.712251,0.653000,-0.231800,0.140000,21.000000,23.000000,12.000000,0.000000,0.000000,0.000000,0.000000,0.000000,0.000000,0.000000
3408.724262,0.645400,-0.222200,0.140000,21.000000,23.000000,12.000000,0.000000,0.000000,0.000000,0.000000,0.000000,0.000000,0.000000
3408.763295,0.637800,-0.212200,0.140000,21.000000,23.000000,12.000000,0.000000,0.000000,0.000000,0.000000,0.000000,0.000000,0.000000
3408.802362,0.630000,-0.202000,0.140000,21.000000,23.000000,12.000000,0.000000,0.000000,0.000000,0.000000,0.000000,0.000000,0.000000
3408.838130,0.622200,-0.191400,0.140000,21.000000,23.000000,12.000000,0.000000,0.000000,0.000000,0.000000,0.000000,0.000000,0.000000
3408.898095,0.614400,-0.180500,0.140000,21.000000,23.000000,12.000000,0.000000,0.000000,0.000000,0.000000,0.000000,0.000000,0.000000
3408.941134,0.606500,-0.169300,0.140000,21.000000,23.000000,12.000000,0.000000,0.000000,0.000000,0.000000,0.000000,0.000000,0.000000
3408.954146,0.598500,-0.157800,0.140000,21.000000,23.000000,12.000000,0.000000,0.000000,0.000000,0.000000,0.000000,0.000000,0.000000
3408.994931,0.590400,-0.146000,0.140000,21.000000,23.000000,12.000000,0.000000,0.000000,0.000000,0.000000,0.000000,0.000000,0.000000
3409.031403,0.582300,-0.133900,0.140000,21.000000,23.000000,12.000000,0.000000,0.000000,0.000000,0.000000,0.000000,0.000000,0.000000
3409.072583,0.574200,-0.121500,0.140000,21.000000,23.000000,12.000000,0.000000,0.000000,0.000000,0.000000,0.000000,0.000000,0.000000
3409.120638,0.566000,-0.108800,0.140000,21.000000,23.000000,12.000000,0.000000,0.000000,0.000000,0.000000,0.000000,0.000000,0.000000
3409.146368,0.557700,-0.095800,0.140000,21.000000,23.000000,12.000000,0.000000,0.000000,0.000000,0.000000,0.000000,0.000000,0.000000
3409.187407,0.549400,-0.082500,0.140000,21.000000,23.000000,12.000000,0.000000,0.000000,0.000000,0.000000,0.000000,0.000000,0.000000
3409.255172,0.541000,-0.068900,0.140000,21.000000,23.000000,12.000000,0.000000,0.000000,0.000000,0.000000,0.000000,0.000000,0.000000
3409.262167,0.532500,-0.055100,0.140000,21.000000,23.000000,12.000000,0.000000,0.000000,0.000000,0.000000,0.000000,0.000000,0.000000
3409.304205,0.524000,-0.041000,0.140000,21.000000,23.000000,12.000000,0.000000,0.000000,0.000000,0.000000,0.000000,0.000000,0.000000
3409.338540,0.515500,-0.026600,0.140000,21.000000,23.000000,12.000000,0.000000,0.000000,0.000000,0.000000,0.000000,0.000000,0.000000
3409.379547,0.506900,-0.011900,0.140000,21.000000,23.000000,12.000000,0.000000,0.000000,0.000000,0.000000,0.000000,0.000000,0.000000
3409.435194,0.498300,0.003000,0.140000,21.000000,23.000000,12.000000,0.000000,0.000000,0.000000,0.000000,0.000000,0.000000,0.000000
3409.472228,0.489600,0.018200,0.140000,21.000000,23.000000,12.000000,0.000000,0.000000,0.000000,0.000000,0.000000,0.000000,0.000000
3409.490244,0.480800,0.033600,0.140000,21.000000,23.000000,12.000000,0.000000,0.000000,0.000000,0.000000,0.000000,0.000000,0.000000
3409.526981,0.472000,0.049300,0.140000,21.000000,23.000000,12.000000,0.000000,0.000000,0.000000,0.000000,0.000000,0.000000,0.000000
3409.563547,0.463200,0.065200,0.140000,21.000000,23.000000,12.000000,0.000000,0.000000,0.000000,0.000000,0.000000,0.000000,0.000000
3409.610190,0.454300,0.081400,0.140000,21.000000,23.000000,12.000000,0.000000,0.000000,0.000000,0.000000,0.000000,0.000000,0.000000
3409.676251,0.445400,0.097800,0.140000,21.000000,23.000000,12.000000,0.000000,0.000000,0.000000,0.000000,0.000000,0.000000,0.000000
3409.679252,0.436400,0.114400,0.140000,21.000000,23.000000,12.000000,0.000000,0.000000,0.000000,0.000000,0.000000,0.000000,0.000000
3409.715417,0.427400,0.131300,0.140000,21.000000,23.000000,12.000000,0.000000,0.000000,0.000000,0.000000,0.000000,0.000000,0.000000
3409.752413,0.418300,0.148400,0.140000,21.000000,23.000000,12.000000,0.000000,0.000000,0.000000,0.000000,0.000000,0.000000,0.000000
3409.809240,0.409200,0.165700,0.140000,21.000000,23.000000,12.000000,0.000000,0.000000,0.000000,0.000000,0.000000,0.000000,0.000000
3409.851278,0.400100,0.183200,0.140000,21.000000,23.000000,12.000000,0.000000,0.000000,0.000000,0.000000,0.000000,0.000000,0.000000
3409.863289,0.390900,0.200900,0.140000,21.000000,23.000000,12.000000,0.000000,0.000000,0.000000,0.000000,0.000000,0.000000,0.000000
3409.903948,0.381700,0.218800,0.140000,21.000000,23.000000,12.000000,0.000000,0.000000,0.000000,0.000000,0.000000,0.000000,0.000000
3409.940950,0.372400,0.236800,0.140000,21.000000,23.000000,12.000000,0.000000,0.000000,0.000000,0.000000,0.000000,0.000000,0.000000
3409.985179,0.363100,0.255100,0.140000,21.000000,23.000000,12.000000,0.000000,0.000000,0.000000,0.000000,0.000000,0.000000,0.000000
3410.029219,0.353800,0.273600,0.140000,21.000000,23.000000,12.000000,0.000000,0.000000,0.000000,0.000000,0.000000,0.000000,0.000000
3410.050519,0.344400,0.292200,0.140000,21.000000,23.000000,12.000000,0.000000,0.000000,0.000000,0.000000,0.000000,0.000000,0.000000
3410.088426,0.335000,0.311000,0.140000,21.000000,23.000000,12.000000,0.000000,0.000000,0.000000,0.000000,0.000000,0.000000,0.000000
3410.125406,0.325600,0.329900,0.140000,21.000000,23.000000,12.000000,0.000000,0.000000,0.000000,0.000000,0.000000,0.000000,0.000000
3410.163458,0.316100,0.349000,0.140000,21.000000,23.000000,12.000000,0.000000,0.000000,0.000000,0.000000,0.000000,0.000000,0.000000
3410.207498,0.306600,0.368200,0.140000,21.000000,23.000000,12.000000,0.000000,0.000000,0.000000,0.000000,0.000000,0.000000,0.000000
3410.239527,0.297000,0.387600,0.140000,21.000000,23.000000,12.000000,0.000000,0.000000,0.000000,0.000000,0.000000,0.000000,0.000000
3410.276409,0.287500,0.407100,0.140000,21.000000,23.000000,12.000000,0.000000,0.000000,0.000000,0.000000,0.000000,0.000000,0.000000
3410.339427,0.277900,0.426700,0.140000,21.000000,23.000000,12.000000,0.000000,0.000000,0.000000,0.000000,0.000000,0.000000,0.000000
3410.350424,0.268300,0.446500,0.140000,21.000000,23.000000,12.000000,0.000000,0.000000,0.000000,0.000000,0.000000,0.000000,0.000000
3410.387457,0.258600,0.466300,0.140000,21.000000,23.000000,12.000000,0.000000,0.000000,0.000000,0.000000,0.000000,0.000000,0.000000
3410.424432,0.248900,0.486300,0.140000,21.000000,23.000000,12.000000,0.000000,0.000000,0.000000,0.000000,0.000000,0.000000,0.000000
3410.465384,0.239300,0.506400,0.140000,21.000000,23.000000,12.000000,0.000000,0.000000,0.000000,0.000000,0.000000,0.000000,0.000000
3410.520710,0.229500,0.526500,0.140000,21.000000,23.000000,12.000000,0.000000,0.000000,0.000000,0.000000,0.000000,0.000000,0.000000
3410.566753,0.219800,0.546700,0.140000,21.000000,23.000000,12.000000,0.000000,0.000000,0.000000,0.000000,0.000000,0.000000,0.000000
3410.576761,0.210000,0.567000,0.140000,21.000000,23.000000,12.000000,0.000000,0.000000,0.000000,0.000000,0.000000,0.000000,0.000000
3410.611697,0.200200,0.587400,0.140000,21.000000,23.000000,12.000000,0.000000,0.000000,0.000000,0.000000,0.000000,0.000000,0.000000
3410.649313,0.190400,0.607800,0.140000,21.000000,23.000000,12.000000,0.000000,0.000000,0.000000,0.000000,0.000000,0.000000,0.000000
3410.706191,0.180600,0.628300,0.140000,21.000000,23.000000,12.000000,0.000000,0.000000,0.000000,0.000000,0.000000,0.000000,0.000000
3410.739736,0.170800,0.648800,0.140000,21.000000,23.000000,12.000000,0.000000,0.000000,0.000000,0.000000,0.000000,0.000000,0.000000
3410.764769,0.160900,0.669400,0.140000,21.000000,23.000000,12.000000,0.000000,0.000000,0.000000,0.000000,0.000000,0.000000,0.000000
3410.800368,0.151000,0.690000,0.140000,21.000000,23.000000,12.000000,0.000000,0.000000,0.000000,0.000000,0.000000,0.000000,0.000000
3410.837974,0.141100,0.710600,0.140000,21.000000,23.000000,12.000000,0.000000,0.000000,0.000000,0.000000,0.000000,0.000000,0.000000
3410.881742,0.131200,0.731200,0.140000,21.000000,23.000000,12.000000,0.000000,0.000000,0.000000,0.000000,0.000000,0.000000,0.000000
3410.928785,0.121300,0.751800,0.140000,21.000000,23.000000,12.000000,0.000000,0.000000,0.000000,0.000000,0.000000,0.000000,0.000000
3410.948440,0.111400,0.772400,0.140000,21.000000,23.000000,12.000000,0.000000,0.000000,0.000000,0.000000,0.000000,0.000000,0.000000
3410.985443,0.101400,0.793000,0.140000,21.000000,23.000000,12.000000,0.000000,0.000000,0.000000,0.000000,0.000000,0.000000,0.000000
3411.026262,0.091500,0.813600,0.140000,21.000000,23.000000,12.000000,0.000000,0.000000,0.000000,0.000000,0.000000,0.000000,0.000000
3411.063323,0.081500,0.834200,0.140000,21.000000,23.000000,12.000000,0.000000,0.000000,0.000000,0.000000,0.000000,0.000000,0.000000
3411.103359,0.071500,0.854700,0.140000,21.000000,23.000000,12.000000,0.000000,0.000000,0.000000,0.000000,0.000000,0.000000,0.000000
3411.136964,0.061600,0.875200,0.140000,21.000000,23.000000,12.000000,0.000000,0.000000,0.000000,0.000000,0.000000,0.000000,0.000000
3411.173535,0.051600,0.895700,0.140000,21.000000,23.000000,12.000000,0.000000,0.000000,0.000000,0.000000,0.000000,0.000000,0.000000
3411.230148,0.041600,0.916000,0.140000,21.000000,23.000000,12.000000,0.000000,0.000000,0.000000,0.000000,0.000000,0.000000,0.000000
3411.271185,0.031600,0.936400,0.140000,21.000000,23.000000,12.000000,0.000000,0.000000,0.000000,0.000000,0.000000,0.000000,0.000000
3411.284197,0.021600,0.956600,0.140000,21.000000,23.000000,12.000000,0.000000,0.000000,0.000000,0.000000,0.000000,0.000000,0.000000
3411.325449,0.011600,0.976700,0.140000,21.000000,23.000000,12.000000,0.000000,0.000000,0.000000,0.000000,0.000000,0.000000,0.000000
3411.362411,0.001600,0.996800,0.140000,21.000000,23.000000,12.000000,0.000000,0.000000,0.000000,0.000000,0.000000,0.000000,0.000000
3411.404573,-0.008400,1.016800,0.140000,21.000000,23.000000,12.000000,0.000000,0.000000,0.000000,0.000000,0.000000,0.000000,0.000000
3411.449619,-0.018400,1.036600,0.140000,21.000000,23.000000,12.000000,0.000000,0.000000,0.000000,0.000000,0.000000,0.000000,0.000000
3411.476536,-0.028400,1.056400,0.140000,21.000000,23.000000,12.000000,0.000000,0.000000,0.000000,0.000000,0.000000,0.000000,0.000000
3411.513534,-0.038400,1.076000,0.140000,21.000000,23.000000,12.000000,0.000000,0.000000,0.000000,0.000000,0.000000,0.000000,0.000000
3411.581060,-0.048400,1.095500,0.140000,21.000000,23.000000,12.000000,0.000000,0.000000,0.000000,0.000000,0.000000,0.000000,0.000000
3411.591069,-0.058400,1.114800,0.140000,21.000000,23.000000,12.000000,0.000000,0.000000,0.000000,0.000000,0.000000,0.000000,0.000000
3411.628237,-0.068400,1.134000,0.140000,21.000000,23.000000,12.000000,0.000000,0.000000,0.000000,0.000000,0.000000,0.000000,0.000000
3411.669443,-0.078300,1.153100,0.140000,21.000000,23.000000,12.000000,0.000000,0.000000,0.000000,0.000000,0.000000,0.000000,0.000000
3411.705814,-0.088300,1.172000,0.140000,21.000000,23.000000,12.000000,0.000000,0.000000,0.000000,0.000000,0.000000,0.000000,0.000000
3411.764161,-0.098200,1.190700,0.140000,21.000000,23.000000,12.000000,0.000000,0.000000,0.000000,0.000000,0.000000,0.000000,0.000000
3411.807200,-0.108200,1.209200,0.140000,21.000000,23.000000,12.000000,0.000000,0.000000,0.000000,0.000000,0.000000,0.000000,0.000000
3411.821199,-0.118100,1.227600,0.140000,21.000000,23.000000,12.000000,0.000000,0.000000,0.000000,0.000000,0.000000,0.000000,0.000000
3411.861975,-0.128100,1.245800,0.140000,21.000000,23.000000,12.000000,0.000000,0.000000,0.000000,0.000000,0.000000,0.000000,0.000000
3411.898976,-0.138000,1.263700,0.140000,21.000000,23.000000,12.000000,0.000000,0.000000,0.000000,0.000000,0.000000,0.000000,0.000000
3411.942151,-0.147900,1.281500,0.140000,21.000000,23.000000,12.000000,0.000000,0.000000,0.000000,0.000000,0.000000,0.000000,0.000000
3411.987202,-0.157700,1.299000,0.140000,21.000000,23.000000,12.000000,0.000000,0.000000,0.000000,0.000000,0.000000,0.000000,0.000000
3412.012563,-0.167600,1.316300,0.140000,21.000000,23.000000,12.000000,0.000000,0.000000,0.000000,0.000000,0.000000,0.000000,0.000000
3412.054323,-0.177500,1.333400,0.140000,21.000000,23.000000,12.000000,0.000000,0.000000,0.000000,0.000000,0.000000,0.000000,0.000000
3412.123115,-0.187300,1.350300,0.140000,21.000000,23.000000,12.000000,0.000000,0.000000,0.000000,0.000000,0.000000,0.000000,0.000000
3412.132124,-0.197100,1.366900,0.140000,21.000000,23.000000,12.000000,0.000000,0.000000,0.000000,0.000000,0.000000,0.000000,0.000000
3412.169158,-0.206900,1.383200,0.140000,21.000000,23.000000,12.000000,0.000000,0.000000,0.000000,0.000000,0.000000,0.000000,0.000000
3412.205995,-0.216700,1.399300,0.140000,21.000000,23.000000,12.000000,0.000000,0.000000,0.000000,0.000000,0.000000,0.000000,0.000000
3412.246996,-0.226400,1.415100,0.140000,21.000000,23.000000,12.000000,0.000000,0.000000,0.000000,0.000000,0.000000,0.000000,0.000000
3412.290159,-0.236200,1.430700,0.140000,21.000000,23.000000,12.000000,0.000000,0.000000,0.000000,0.000000,0.000000,0.000000,0.000000
3412.344246,-0.245900,1.445900,0.140000,21.000000,23.000000,12.000000,0.000000,0.000000,0.000000,0.000000,0.000000,0.000000,0.000000
3412.361415,-0.255500,1.460900,0.140000,21.000000,23.000000,12.000000,0.000000,0.000000,0.000000,0.000000,0.000000,0.000000,0.000000
3412.398119,-0.265200,1.475600,0.140000,21.000000,23.000000,12.000000,0.000000,0.000000,0.000000,0.000000,0.000000,0.000000,0.000000
3412.456792,-0.274800,1.490000,0.140000,21.000000,23.000000,12.000000,0.000000,0.000000,0.000000,0.000000,0.000000,0.000000,0.000000
3412.475809,-0.284400,1.504100,0.140000,21.000000,23.000000,12.000000,0.000000,0.000000,0.000000,0.000000,0.000000,0.000000,0.000000
3412.520849,-0.294000,1.517800,0.140000,21.000000,23.000000,12.000000,0.000000,0.000000,0.000000,0.000000,0.000000,0.000000,0.000000
3412.553310,-0.303500,1.531300,0.140000,21.000000,23.000000,12.000000,0.000000,0.000000,0.000000,0.000000,0.000000,0.000000,0.000000
3412.590989,-0.313100,1.544400,0.140000,21.000000,23.000000,12.000000,0.000000,0.000000,0.000000,0.000000,0.000000,0.000000,0.000000
3412.653151,-0.322500,1.557200,0.140000,21.000000,23.000000,12.000000,0.000000,0.000000,0.000000,0.000000,0.000000,0.000000,0.000000
3412.699203,-0.332000,1.569600,0.140000,21.000000,23.000000,12.000000,0.000000,0.000000,0.000000,0.000000,0.000000,0.000000,0.000000
3412.714343,-0.341400,1.581700,0.140000,21.000000,23.000000,12.000000,0.000000,0.000000,0.000000,0.000000,0.000000,0.000000,0.000000
3412.745546,-0.350800,1.593400,0.140000,21.000000,23.000000,12.000000,0.000000,0.000000,0.000000,0.000000,0.000000,0.000000,0.000000
3412.783464,-0.360100,1.604800,0.140000,21.000000,23.000000,12.000000,0.000000,0.000000,0.000000,0.000000,0.000000,0.000000,0.000000
3412.843336,-0.369400,1.615900,0.140000,21.000000,23.000000,12.000000,0.000000,0.000000,0.000000,0.000000,0.000000,0.000000,0.000000
3412.887376,-0.378700,1.626500,0.140000,21.000000,23.000000,12.000000,0.000000,0.000000,0.000000,0.000000,0.000000,0.000000,0.000000
3412.899387,-0.387900,1.636800,0.140000,21.000000,23.000000,12.000000,0.000000,0.000000,0.000000,0.000000,0.000000,0.000000,0.000000
3412.939008,-0.397100,1.646700,0.140000,21.000000,23.000000,12.000000,0.000000,0.000000,0.000000,0.000000,0.000000,0.000000,0.000000
3412.976008,-0.406300,1.656200,0.140000,21.000000,23.000000,12.000000,0.000000,0.000000,0.000000,0.000000,0.000000,0.000000,0.000000
3413.022325,-0.415400,1.665400,0.140000,21.000000,23.000000,12.000000,0.000000,0.000000,0.000000,0.000000,0.000000,0.000000,0.000000
3413.066365,-0.424500,1.674100,0.140000,21.000000,23.000000,12.000000,0.000000,0.000000,0.000000,0.000000,0.000000,0.000000,0.000000
3413.090410,-0.433500,1.682500,0.140000,21.000000,23.000000,12.000000,0.000000,0.000000,0.000000,0.000000,0.000000,0.000000,0.000000
3413.131516,-0.442500,1.690400,0.140000,21.000000,23.000000,12.000000,0.000000,0.000000,0.000000,0.000000,0.000000,0.000000,0.000000
3413.185183,-0.451500,1.698000,0.140000,21.000000,23.000000,12.000000,0.000000,0.000000,0.000000,0.000000,0.000000,0.000000,0.000000
3413.207203,-0.460400,1.705100,0.140000,21.000000,23.000000,12.000000,0.000000,0.000000,0.000000,0.000000,0.000000,0.000000,0.000000
3413.248240,-0.469200,1.711800,0.140000,21.000000,23.000000,12.000000,0.000000,0.000000,0.000000,0.000000,0.000000,0.000000,0.000000
3413.283033,-0.478000,1.718100,0.140000,21.000000,23.000000,12.000000,0.000000,0.000000,0.000000,0.000000,0.000000,0.000000,0.000000
3413.324017,-0.486800,1.724000,0.140000,21.000000,23.000000,12.000000,0.000000,0.000000,0.000000,0.000000,0.000000,0.000000,0.000000
3413.382289,-0.495500,1.729400,0.140000,21.000000,23.000000,12.000000,0.000000,0.000000,0.000000,0.000000,0.000000,0.000000,0.000000
3413.429331,-0.504200,1.734400,0.140000,21.000000,23.000000,12.000000,0.000000,0.000000,0.000000,0.000000,0.000000,0.000000,0.000000
3413.438341,-0.512800,1.739000,0.140000,21.000000,23.000000,12.000000,0.000000,0.000000,0.000000,0.000000,0.000000,0.000000,0.000000
3413.475375,-0.521300,1.743100,0.140000,21.000000,23.000000,12.000000,0.000000,0.000000,0.000000,0.000000,0.000000,0.000000,0.000000
3413.512491,-0.529800,1.746800,0.140000,21.000000,23.000000,12.000000,0.000000,0.000000,0.000000,0.000000,0.000000,0.000000,0.000000
3413.561470,-0.538300,1.750100,0.140000,21.000000,23.000000,12.000000,0.000000,0.000000,0.000000,0.000000,0.000000,0.000000,0.000000
3413.604509,-0.546700,1.752900,0.140000,21.000000,23.000000,12.000000,0.000000,0.000000,0.000000,0.000000,0.000000,0.000000,0.000000
3413.630518,-0.555000,1.755200,0.140000,21.000000,23.000000,12.000000,0.000000,0.000000,0.000000,0.000000,0.000000,0.000000,0.000000
3413.667984,-0.563300,1.757100,0.140000,21.000000,23.000000,12.000000,0.000000,0.000000,0.000000,0.000000,0.000000,0.000000,0.000000
3413.729176,-0.571600,1.758600,0.140000,21.000000,23.000000,12.000000,0.000000,0.000000,0.000000,0.000000,0.000000,0.000000,0.000000
3413.774212,-0.579700,1.759500,0.140000,21.000000,23.000000,12.000000,0.000000,0.000000,0.000000,0.000000,0.000000,0.000000,0.000000
3413.784212,-0.587900,1.760100,0.140000,21.000000,23.000000,12.000000,0.000000,0.000000,0.000000,0.000000,0.000000,0.000000,0.000000
3413.824013,-0.595900,1.760100,0.140000,21.000000,23.000000,12.000000,0.000000,0.000000,0.000000,0.000000,0.000000,0.000000,0.000000
3413.860503,-0.603900,1.759700,0.140000,21.000000,23.000000,12.000000,0.000000,0.000000,0.000000,0.000000,0.000000,0.000000,0.000000
3413.915496,-0.611900,1.758900,0.140000,21.000000,23.000000,12.000000,0.000000,0.000000,0.000000,0.000000,0.000000,0.000000,0.000000
3413.962539,-0.619700,1.757600,0.140000,21.000000,23.000000,12.000000,0.000000,0.000000,0.000000,0.000000,0.000000,0.000000,0.000000
3413.975550,-0.627600,1.755800,0.140000,21.000000,23.000000,12.000000,0.000000,0.000000,0.000000,0.000000,0.000000,0.000000,0.000000
3414.016449,-0.635300,1.753500,0.140000,21.000000,23.000000,12.000000,0.000000,0.000000,0.000000,0.000000,0.000000,0.000000,0.000000
3414.052564,-0.643000,1.750800,0.140000,21.000000,23.000000,12.000000,0.000000,0.000000,0.000000,0.000000,0.000000,0.000000,0.000000
3414.092188,-0.650600,1.747600,0.140000,21.000000,23.000000,12.000000,0.000000,0.000000,0.000000,0.000000,0.000000,0.000000,0.000000
3414.135227,-0.658200,1.743900,0.140000,21.000000,23.000000,12.000000,0.000000,0.000000,0.000000,0.000000,0.000000,0.000000,0.000000
3414.168032,-0.665700,1.739700,0.140000,21.000000,23.000000,12.000000,0.000000,0.000000,0.000000,0.000000,0.000000,0.000000,0.000000
3414.204614,-0.673100,1.735100,0.140000,21.000000,23.000000,12.000000,0.000000,0.000000,0.000000,0.000000,0.000000,0.000000,0.000000
3414.262179,-0.680500,1.730000,0.140000,21.000000,23.000000,12.000000,0.000000,0.000000,0.000000,0.000000,0.000000,0.000000,0.000000
3414.306213,-0.687800,1.724500,0.140000,21.000000,23.000000,12.000000,0.000000,0.000000,0.000000,0.000000,0.000000,0.000000,0.000000
3414.323454,-0.695000,1.718400,0.140000,21.000000,23.000000,12.000000,0.000000,0.000000,0.000000,0.000000,0.000000,0.000000,0.000000
3414.360506,-0.702100,1.711900,0.140000,21.000000,23.000000,12.000000,0.000000,0.000000,0.000000,0.000000,0.000000,0.000000,0.000000
3414.397458,-0.709200,1.705000,0.140000,21.000000,23.000000,12.000000,0.000000,0.000000,0.000000,0.000000,0.000000,0.000000,0.000000
3414.443225,-0.716200,1.697500,0.140000,21.000000,23.000000,12.000000,0.000000,0.000000,0.000000,0.000000,0.000000,0.000000,0.000000
3414.487265,-0.723200,1.689600,0.140000,21.000000,23.000000,12.000000,0.000000,0.000000,0.000000,0.000000,0.000000,0.000000,0.000000
3414.516039,-0.730100,1.681200,0.140000,21.000000,23.000000,12.000000,0.000000,0.000000,0.000000,0.000000,0.000000,0.000000,0.000000
3414.553040,-0.736900,1.672400,0.140000,21.000000,23.000000,12.000000,0.000000,0.000000,0.000000,0.000000,0.000000,0.000000,0.000000
3414.612171,-0.743600,1.663000,0.140000,21.000000,23.000000,12.000000,0.000000,0.000000,0.000000,0.000000,0.000000,0.000000,0.000000
3414.631188,-0.750200,1.653300,0.140000,21.000000,23.000000,12.000000,0.000000,0.000000,0.000000,0.000000,0.000000,0.000000,0.000000
3414.671225,-0.756800,1.643000,0.140000,21.000000,23.000000,12.000000,0.000000,0.000000,0.000000,0.000000,0.000000,0.000000,0.000000
3414.704466,-0.763300,1.632300,0.140000,21.000000,23.000000,12.000000,0.000000,0.000000,0.000000,0.000000,0.000000,0.000000,0.000000
3414.745276,-0.769700,1.621100,0.140000,21.000000,23.000000,12.000000,0.000000,0.000000,0.000000,0.000000,0.000000,0.000000,0.000000
3414.805542,-0.776100,1.609500,0.140000,21.000000,23.000000,12.000000,0.000000,0.000000,0.000000,0.000000,0.000000,0.000000,0.000000
3414.839561,-0.782300,1.597400,0.140000,21.000000,23.000000,12.000000,0.000000,0.000000,0.000000,0.000000,0.000000,0.000000,0.000000
3414.859580,-0.788500,1.584900,0.140000,21.000000,23.000000,12.000000,0.000000,0.000000,0.000000,0.000000,0.000000,0.000000,0.000000
3414.897044,-0.794600,1.571900,0.140000,21.000000,23.000000,12.000000,0.000000,0.000000,0.000000,0.000000,0.000000,0.000000,0.000000
3414.937927,-0.800700,1.558500,0.140000,21.000000,23.000000,12.000000,0.000000,0.000000,0.000000,0.000000,0.000000,0.000000,0.000000
3414.992173,-0.806600,1.544600,0.140000,21.000000,23.000000,12.000000,0.000000,0.000000,0.000000,0.000000,0.000000,0.000000,0.000000
3415.029207,-0.812500,1.530300,0.140000,21.000000,23.000000,12.000000,0.000000,0.000000,0.000000,0.000000,0.000000,0.000000,0.000000
3415.053228,-0.818300,1.515600,0.140000,21.000000,23.000000,12.000000,0.000000,0.000000,0.000000,0.000000,0.000000,0.000000,0.000000
3415.089019,-0.824000,1.500400,0.140000,21.000000,23.000000,12.000000,0.000000,0.000000,0.000000,0.000000,0.000000,0.000000,0.000000
3415.130056,-0.829600,1.484800,0.140000,21.000000,23.000000,12.000000,0.000000,0.000000,0.000000,0.000000,0.000000,0.000000,0.000000
3415.174328,-0.835200,1.468700,0.140000,21.000000,23.000000,12.000000,0.000000,0.000000,0.000000,0.000000,0.000000,0.000000,0.000000
3415.219379,-0.840600,1.452300,0.140000,21.000000,23.000000,12.000000,0.000000,0.000000,0.000000,0.000000,0.000000,0.000000,0.000000
3415.245040,-0.846000,1.435400,0.140000,21.000000,23.000000,12.000000,0.000000,0.000000,0.000000,0.000000,0.000000,0.000000,0.000000
3415.282051,-0.851300,1.418100,0.140000,21.000000,23.000000,12.000000,0.000000,0.000000,0.000000,0.000000,0.000000,0.000000,0.000000
3415.350184,-0.856500,1.400400,0.140000,21.000000,23.000000,12.000000,0.000000,0.000000,0.000000,0.000000,0.000000,0.000000,0.000000
3415.360194,-0.861600,1.382300,0.140000,21.000000,23.000000,12.000000,0.000000,0.000000,0.000000,0.000000,0.000000,0.000000,0.000000
3415.398229,-0.866600,1.363800,0.140000,21.000000,23.000000,12.000000,0.000000,0.000000,0.000000,0.000000,0.000000,0.000000,0.000000
3415.437536,-0.871600,1.344900,0.140000,21.000000,23.000000,12.000000,0.000000,0.000000,0.000000,0.000000,0.000000,0.000000,0.000000
3415.474446,-0.876400,1.325600,0.140000,21.000000,23.000000,12.000000,0.000000,0.000000,0.000000,0.000000,0.000000,0.000000,0.000000
3415.531178,-0.881200,1.305900,0.140000,21.000000,23.000000,12.000000,0.000000,0.000000,0.000000,0.000000,0.000000,0.000000,0.000000
3415.576219,-0.885900,1.285800,0.140000,21.000000,23.000000,12.000000,0.000000,0.000000,0.000000,0.000000,0.000000,0.000000,0.000000
3415.589230,-0.890500,1.265400,0.140000,21.000000,23.000000,12.000000,0.000000,0.000000,0.000000,0.000000,0.000000,0.000000,0.000000
3415.630060,-0.895000,1.244600,0.140000,21.000000,23.000000,12.000000,0.000000,0.000000,0.000000,0.000000,0.000000,0.000000,0.000000
3415.667061,-0.899400,1.223400,0.140000,21.000000,23.000000,12.000000,0.000000,0.000000,0.000000,0.000000,0.000000,0.000000,0.000000
3415.725182,-0.903700,1.201900,0.140000,21.000000,23.000000,12.000000,0.000000,0.000000,0.000000,0.000000,0.000000,0.000000,0.000000
3415.767220,-0.908000,1.180000,0.140000,21.000000,23.000000,12.000000,0.000000,0.000000,0.000000,0.000000,0.000000,0.000000,0.000000
3415.781232,-0.912100,1.157800,0.140000,21.000000,23.000000,12.000000,0.000000,0.000000,0.000000,0.000000,0.000000,0.000000,0.000000
3415.822639,-0.916200,1.135200,0.140000,21.000000,23.000000,12.000000,0.000000,0.000000,0.000000,0.000000,0.000000,0.000000,0.000000
3415.859485,-0.920100,1.112300,0.140000,21.000000,23.000000,12.000000,0.000000,0.000000,0.000000,0.000000,0.000000,0.000000,0.000000
3415.902185,-0.924000,1.089100,0.140000,21.000000,23.000000,12.000000,0.000000,0.000000,0.000000,0.000000,0.000000,0.000000,0.000000
3415.947226,-0.927800,1.065500,0.140000,21.000000,23.000000,12.000000,0.000000,0.000000,0.000000,0.000000,0.000000,0.000000,0.000000
3415.973587,-0.931500,1.041600,0.140000,21.000000,23.000000,12.000000,0.000000,0.000000,0.000000,0.000000,0.000000,0.000000,0.000000
3416.015067,-0.935100,1.017500,0.140000,21.000000,23.000000,12.000000,0.000000,0.000000,0.000000,0.000000,0.000000,0.000000,0.000000
3416.079180,-0.938600,0.993000,0.140000,21.000000,23.000000,12.000000,0.000000,0.000000,0.000000,0.000000,0.000000,0.000000,0.000000
3416.089177,-0.942000,0.968200,0.140000,21.000000,23.000000,12.000000,0.000000,0.000000,0.000000,0.000000,0.000000,0.000000,0.000000
3416.130226,-0.945300,0.943200,0.140000,21.000000,23.000000,12.000000,0.000000,0.000000,0.000000,0.000000,0.000000,0.000000,0.000000
3416.166650,-0.948500,0.917800,0.140000,21.000000,23.000000,12.000000,0.000000,0.000000,0.000000,0.000000,0.000000,0.000000,0.000000
3416.207287,-0.951600,0.892200,0.140000,21.000000,23.000000,12.000000,0.000000,0.000000,0.000000,0.000000,0.000000,0.000000,0.000000
3416.253942,-0.954600,0.866400,0.140000,21.000000,23.000000,12.000000,0.000000,0.000000,0.000000,0.000000,0.000000,0.000000,0.000000
3416.298983,-0.957600,0.840200,0.140000,21.000000,23.000000,12.000000,0.000000,0.000000,0.000000,0.000000,0.000000,0.000000,0.000000
3416.322004,-0.960400,0.813900,0.140000,21.000000,23.000000,12.000000,0.000000,0.000000,0.000000,0.000000,0.000000,0.000000,0.000000
3416.359497,-0.963100,0.787200,0.140000,21.000000,23.000000,12.000000,0.000000,0.000000,0.000000,0.000000,0.000000,0.000000,0.000000
3416.414181,-0.965800,0.760400,0.140000,21.000000,23.000000,12.000000,0.000000,0.000000,0.000000,0.000000,0.000000,0.000000,0.000000
3416.436201,-0.968300,0.733300,0.140000,21.000000,23.000000,12.000000,0.000000,0.000000,0.000000,0.000000,0.000000,0.000000,0.000000
3416.477238,-0.970800,0.706000,0.140000,21.000000,23.000000,12.000000,0.000000,0.000000,0.000000,0.000000,0.000000,0.000000,0.000000
3416.515077,-0.973100,0.678500,0.140000,21.000000,23.000000,12.000000,0.000000,0.000000,0.000000,0.000000,0.000000,0.000000,0.000000
3416.551249,-0.975400,0.650800,0.140000,21.000000,23.000000,12.000000,0.000000,0.000000,0.000000,0.000000,0.000000,0.000000,0.000000
3416.611297,-0.977500,0.622900,0.140000,21.000000,23.000000,12.000000,0.000000,0.000000,0.000000,0.000000,0.000000,0.000000,0.000000
3416.656339,-0.979600,0.594800,0.140000,21.000000,23.000000,12.000000,0.000000,0.000000,0.000000,0.000000,0.000000,0.000000,0.000000
3416.666348,-0.981600,0.566500,0.140000,21.000000,23.000000,12.000000,0.000000,0.000000,0.000000,0.000000,0.000000,0.000000,0.000000
3416.707471,-0.983400,0.538100,0.140000,21.000000,23.000000,12.000000,0.000000,0.000000,0.000000,0.000000,0.000000,0.000000,0.000000
3416.744503,-0.985200,0.509500,0.140000,21.000000,23.000000,12.000000,0.000000,0.000000,0.000000,0.000000,0.000000,0.000000,0.000000
3416.794568,-0.986800,0.480700,0.140000,21.000000,23.000000,12.000000,0.000000,0.000000,0.000000,0.000000,0.000000,0.000000,0.000000
3416.838599,-0.988400,0.451900,0.140000,21.000000,23.000000,12.000000,0.000000,0.000000,0.000000,0.000000,0.000000,0.000000,0.000000
3416.859081,-0.989900,0.422800,0.140000,21.000000,23.000000,12.000000,0.000000,0.000000,0.000000,0.000000,0.000000,0.000000,0.000000
3416.900082,-0.991300,0.393700,0.140000,21.000000,23.000000,12.000000,0.000000,0.000000,0.000000,0.000000,0.000000,0.000000,0.000000
3416.936663,-0.992500,0.364400,0.140000,21.000000,23.000000,12.000000,0.000000,0.000000,0.000000,0.000000,0.000000,0.000000,0.000000
3416.973177,-0.993700,0.335000,0.140000,21.000000,23.000000,12.000000,0.000000,0.000000,0.000000,0.000000,0.000000,0.000000,0.000000
3417.020219,-0.994800,0.305500,0.140000,21.000000,23.000000,12.000000,0.000000,0.000000,0.000000,0.000000,0.000000,0.000000,0.000000
3417.051526,-0.995700,0.276000,0.140000,21.000000,23.000000,12.000000,0.000000,0.000000,0.000000,0.000000,0.000000,0.000000,0.000000
3417.092560,-0.996600,0.246300,0.140000,21.000000,23.000000,12.000000,0.000000,0.000000,0.000000,0.000000,0.000000,0.000000,0.000000
3417.153142,-0.997400,0.216600,0.140000,21.000000,23.000000,12.000000,0.000000,0.000000,0.000000,0.000000,0.000000,0.000000,0.000000
3417.195180,-0.998100,0.186800,0.140000,21.000000,23.000000,12.000000,0.000000,0.000000,0.000000,0.000000,0.000000,0.000000,0.000000
3417.207191,-0.998600,0.156900,0.140000,21.000000,23.000000,12.000000,0.000000,0.000000,0.000000,0.000000,0.000000,0.000000,0.000000
3417.244091,-0.999100,0.127000,0.140000,21.000000,23.000000,12.000000,0.000000,0.000000,0.000000,0.000000,0.000000,0.000000,0.000000
3417.281092,-0.999500,0.097100,0.140000,21.000000,23.000000,12.000000,0.000000,0.000000,0.000000,0.000000,0.000000,0.000000,0.000000
3417.330338,-0.999700,0.067100,0.140000,21.000000,23.000000,12.000000,0.000000,0.000000,0.000000,0.000000,0.000000,0.000000,0.000000
3417.373378,-0.999900,0.037100,0.140000,21.000000,23.000000,12.000000,0.000000,0.000000,0.000000,0.000000,0.000000,0.000000,0.000000
3417.399394,-1.000000,0.007100,0.140000,21.000000,23.000000,12.000000,0.000000,0.000000,0.000000,0.000000,0.000000,0.000000,0.000000
3417.436381,-1.000000,-0.022900,0.140000,21.000000,23.000000,12.000000,0.000000,0.000000,0.000000,0.000000,0.000000,0.000000,0.000000
3417.495167,-0.999800,-0.052900,0.140000,21.000000,23.000000,12.000000,0.000000,0.000000,0.000000,0.000000,0.000000,0.000000,0.000000
3417.520191,-0.999600,-0.082800,0.140000,21.000000,23.000000,12.000000,0.000000,0.000000,0.000000,0.000000,0.000000,0.000000,0.000000
3417.556214,-0.999300,-0.112800,0.140000,21.000000,23.000000,12.000000,0.000000,0.000000,0.000000,0.000000,0.000000,0.000000,0.000000
3417.596085,-0.998900,-0.142700,0.140000,21.000000,23.000000,12.000000,0.000000,0.000000,0.000000,0.000000,0.000000,0.000000,0.000000
3417.633086,-0.998300,-0.172600,0.140000,21.000000,23.000000,12.000000,0.000000,0.000000,0.000000,0.000000,0.000000,0.000000,0.000000
3417.692573,-0.997700,-0.202400,0.140000,21.000000,23.000000,12.000000,0.000000,0.000000,0.000000,0.000000,0.000000,0.000000,0.000000
3417.737614,-0.997000,-0.232200,0.140000,21.000000,23.000000,12.000000,0.000000,0.000000,0.000000,0.000000,0.000000,0.000000,0.000000
3417.751617,-0.996200,-0.261900,0.140000,21.000000,23.000000,12.000000,0.000000,0.000000,0.000000,0.000000,0.000000,0.000000,0.000000
3417.792681,-0.995200,-0.291500,0.140000,21.000000,23.000000,12.000000,0.000000,0.000000,0.000000,0.000000,0.000000,0.000000,0.000000
3417.833682,-0.994200,-0.321000,0.140000,21.000000,23.000000,12.000000,0.000000,0.000000,0.000000,0.000000,0.000000,0.000000,0.000000
3417.876169,-0.993100,-0.350400,0.140000,21.000000,23.000000,12.000000,0.000000,0.000000,0.000000,0.000000,0.000000,0.000000,0.000000
3417.927216,-0.991900,-0.379800,0.140000,21.000000,23.000000,12.000000,0.000000,0.000000,0.000000,0.000000,0.000000,0.000000,0.000000
3417.952576,-0.990500,-0.409000,0.140000,21.000000,23.000000,12.000000,0.000000,0.000000,0.000000,0.000000,0.000000,0.000000,0.000000
3417.989138,-0.989100,-0.438100,0.140000,21.000000,23.000000,12.000000,0.000000,0.000000,0.000000,0.000000,0.000000,0.000000,0.000000
3418.051279,-0.987600,-0.467000,0.140000,21.000000,23.000000,12.000000,0.000000,0.000000,0.000000,0.000000,0.000000,0.000000,0.000000
3418.071297,-0.986000,-0.495900,0.140000,21.000000,23.000000,12.000000,0.000000,0.000000,0.000000,0.000000,0.000000,0.000000,0.000000
3418.113337,-0.984300,-0.524500,0.140000,21.000000,23.000000,12.000000,0.000000,0.000000,0.000000,0.000000,0.000000,0.000000,0.000000
3418.149134,-0.982400,-0.553000,0.140000,21.000000,23.000000,12.000000,0.000000,0.000000,0.000000,0.000000,0.000000,0.000000,0.000000
3418.186109,-0.980500,-0.581400,0.140000,21.000000,23.000000,12.000000,0.000000,0.000000,0.000000,0.000000,0.000000,0.000000,0.000000
3418.248184,-0.978500,-0.609600,0.140000,21.000000,23.000000,12.000000,0.000000,0.000000,0.000000,0.000000,0.000000,0.000000,0.000000
3418.290222,-0.976400,-0.637600,0.140000,21.000000,23.000000,12.000000,0.000000,0.000000,0.000000,0.000000,0.000000,0.000000,0.000000
3418.304691,-0.974200,-0.665400,0.140000,21.000000,23.000000,12.000000,0.000000,0.000000,0.000000,0.000000,0.000000,0.000000,0.000000
3418.345527,-0.971900,-0.693000,0.140000,21.000000,23.000000,12.000000,0.000000,0.000000,0.000000,0.000000,0.000000,0.000000,0.000000
3418.386552,-0.969500,-0.720400,0.140000,21.000000,23.000000,12.000000,0.000000,0.000000,0.000000,0.000000,0.000000,0.000000,0.000000
3418.428589,-0.967000,-0.747600,0.140000,21.000000,23.000000,12.000000,0.000000,0.000000,0.000000,0.000000,0.000000,0.000000,0.000000
3418.472629,-0.964400,-0.774500,0.140000,21.000000,23.000000,12.000000,0.000000,0.000000,0.000000,0.000000,0.000000,0.000000,0.000000
3418.505506,-0.961700,-0.801200,0.140000,21.000000,23.000000,12.000000,0.000000,0.000000,0.000000,0.000000,0.000000,0.000000,0.000000
3418.542536,-0.958900,-0.827700,0.140000,21.000000,23.000000,12.000000,0.000000,0.000000,0.000000,0.000000,0.000000,0.000000,0.000000
3418.601184,-0.956000,-0.854000,0.140000,21.000000,23.000000,12.000000,0.000000,0.000000,0.000000,0.000000,0.000000,0.000000,0.000000
3418.643223,-0.953100,-0.880000,0.140000,21.000000,23.000000,12.000000,0.000000,0.000000,0.000000,0.000000,0.000000,0.000000,0.000000
3418.661116,-0.950000,-0.905700,0.140000,21.000000,23.000000,12.000000,0.000000,0.000000,0.000000,0.000000,0.000000,0.000000,0.000000
3418.701363,-0.946800,-0.931200,0.140000,21.000000,23.000000,12.000000,0.000000,0.000000,0.000000,0.000000,0.000000,0.000000,0.000000
3418.774192,-0.943500,-0.956400,0.140000,21.000000,23.000000,12.000000,0.000000,0.000000,0.000000,0.000000,0.000000,0.000000,0.000000
3418.787203,-0.940200,-0.981300,0.140000,21.000000,23.000000,12.000000,0.000000,0.000000,0.000000,0.000000,0.000000,0.000000,0.000000
3418.831245,-0.936700,-1.005900,0.140000,21.000000,23.000000,12.000000,0.000000,0.000000,0.000000,0.000000,0.000000,0.000000,0.000000
3418.857292,-0.933200,-1.030200,0.140000,21.000000,23.000000,12.000000,0.000000,0.000000,0.000000,0.000000,0.000000,0.000000,0.000000
3418.898149,-0.929500,-1.054200,0.140000,21.000000,23.000000,12.000000,0.000000,0.000000,0.000000,0.000000,0.000000,0.000000,0.000000
3418.965608,-0.925800,-1.077900,0.140000,21.000000,23.000000,12.000000,0.000000,0.000000,0.000000,0.000000,0.000000,0.000000,0.000000
3418.976619,-0.922000,-1.101300,0.140000,21.000000,23.000000,12.000000,0.000000,0.000000,0.000000,0.000000,0.000000,0.000000,0.000000
3419.018656,-0.918100,-1.124300,0.140000,21.000000,23.000000,12.000000,0.000000,0.000000,0.000000,0.000000,0.000000,0.000000,0.000000
3419.058581,-0.914100,-1.147100,0.140000,21.000000,23.000000,12.000000,0.000000,0.000000,0.000000,0.000000,0.000000,0.000000,0.000000
3419.095545,-0.909900,-1.169500,0.140000,21.000000,23.000000,12.000000,0.000000,0.000000,0.000000,0.000000,0.000000,0.000000,0.000000
3419.142652,-0.905800,-1.191500,0.140000,21.000000,23.000000,12.000000,0.000000,0.000000,0.000000,0.000000,0.000000,0.000000,0.000000
3419.186690,-0.901500,-1.213200,0.140000,21.000000,23.000000,12.000000,0.000000,0.000000,0.000000,0.000000,0.000000,0.000000,0.000000
3419.214124,-0.897100,-1.234600,0.140000,21.000000,23.000000,12.000000,0.000000,0.000000,0.000000,0.000000,0.000000,0.000000,0.000000
3419.255118,-0.892600,-1.255500,0.140000,21.000000,23.000000,12.000000,0.000000,0.000000,0.000000,0.000000,0.000000,0.000000,0.000000
3419.319164,-0.888100,-1.276100,0.140000,21.000000,23.000000,12.000000,0.000000,0.000000,0.000000,0.000000,0.000000,0.000000,0.000000
3419.353195,-0.883400,-1.296400,0.140000,21.000000,23.000000,12.000000,0.000000,0.000000,0.000000,0.000000,0.000000,0.000000,0.000000
3419.374206,-0.878700,-1.316300,0.140000,21.000000,23.000000,12.000000,0.000000,0.000000,0.000000,0.000000,0.000000,0.000000,0.000000
3419.410709,-0.873900,-1.335700,0.140000,21.000000,23.000000,12.000000,0.000000,0.000000,0.000000,0.000000,0.000000,0.000000,0.000000
3419.451528,-0.869000,-1.354800,0.140000,21.000000,23.000000,12.000000,0.000000,0.000000,0.000000,0.000000,0.000000,0.000000,0.000000
3419.495174,-0.864000,-1.373500,0.140000,21.000000,23.000000,12.000000,0.000000,0.000000,0.000000,0.000000,0.000000,0.000000,0.000000
3419.539214,-0.858900,-1.391800,0.140000,21.000000,23.000000,12.000000,0.000000,0.000000,0.000000,0.000000,0.000000,0.000000,0.000000
3419.570557,-0.853800,-1.409700,0.140000,21.000000,23.000000,12.000000,0.000000,0.000000,0.000000,0.000000,0.000000,0.000000,0.000000
3419.611159,-0.848500,-1.427200,0.140000,21.000000,23.000000,12.000000,0.000000,0.000000,0.000000,0.000000,0.000000,0.000000,0.000000
3419.671682,-0.843200,-1.444300,0.140000,21.000000,23.000000,12.000000,0.000000,0.000000,0.000000,0.000000,0.000000,0.000000,0.000000
3419.716722,-0.837800,-1.461000,0.140000,21.000000,23.000000,12.000000,0.000000,0.000000,0.000000,0.000000,0.000000,0.000000,0.000000
3419.725730,-0.832300,-1.477200,0.140000,21.000000,23.000000,12.000000,0.000000,0.000000,0.000000,0.000000,0.000000,0.000000,0.000000
3419.767126,-0.826700,-1.493000,0.140000,21.000000,23.000000,12.000000,0.000000,0.000000,0.000000,0.000000,0.000000,0.000000,0.000000
3419.808118,-0.821000,-1.508400,0.140000,21.000000,23.000000,12.000000,0.000000,0.000000,0.000000,0.000000,0.000000,0.000000,0.000000
3419.852653,-0.815200,-1.523400,0.140000,21.000000,23.000000,12.000000,0.000000,0.000000,0.000000,0.000000,0.000000,0.000000,0.000000
3419.900697,-0.809400,-1.537900,0.140000,21.000000,23.000000,12.000000,0.000000,0.000000,0.000000,0.000000,0.000000,0.000000,0.000000
3419.925723,-0.803500,-1.552000,0.140000,21.000000,23.000000,12.000000,0.000000,0.000000,0.000000,0.000000,0.000000,0.000000,0.000000
3419.963307,-0.797500,-1.565600,0.140000,21.000000,23.000000,12.000000,0.000000,0.000000,0.000000,0.000000,0.000000,0.000000,0.000000
3420.038656,-0.791400,-1.578800,0.140000,21.000000,23.000000,12.000000,0.000000,0.000000,0.000000,0.000000,0.000000,0.000000,0.000000
3420.045662,-0.785300,-1.591500,0.140000,21.000000,23.000000,12.000000,0.000000,0.000000,0.000000,0.000000,0.000000,0.000000,0.000000
3420.091705,-0.779100,-1.603800,0.140000,21.000000,23.000000,12.000000,0.000000,0.000000,0.000000,0.000000,0.000000,0.000000,0.000000
3420.123177,-0.772700,-1.615700,0.140000,21.000000,23.000000,12.000000,0.000000,0.000000,0.000000,0.000000,0.000000,0.000000,0.000000
3420.164556,-0.766400,-1.627000,0.140000,21.000000,23.000000,12.000000,0.000000,0.000000,0.000000,0.000000,0.000000,0.000000,0.000000
3420.219763,-0.759900,-1.638000,0.140000,21.000000,23.000000,12.000000,0.000000,0.000000,0.000000,0.000000,0.000000,0.000000,0.000000
3420.263808,-0.753400,-1.648400,0.140000,21.000000,23.000000,12.000000,0.000000,0.000000,0.000000,0.000000,0.000000,0.000000,0.000000
3420.279136,-0.746700,-1.658400,0.140000,21.000000,23.000000,12.000000,0.000000,0.000000,0.000000,0.000000,0.000000,0.000000,0.000000
3420.320121,-0.740100,-1.668000,0.140000,21.000000,23.000000,12.000000,0.000000,0.000000,0.000000,0.000000,0.000000,0.000000,0.000000
3420.367129,-0.733300,-1.677100,0.140000,21.000000,23.000000,12.000000,0.000000,0.000000,0.000000,0.000000,0.000000,0.000000,0.000000
3420.397156,-0.726500,-1.685700,0.140000,21.000000,23.000000,12.000000,0.000000,0.000000,0.000000,0.000000,0.000000,0.000000,0.000000
3420.438309,-0.719600,-1.693800,0.140000,21.000000,23.000000,12.000000,0.000000,0.000000,0.000000,0.000000,0.000000,0.000000,0.000000
3420.479720,-0.712600,-1.701500,0.140000,21.000000,23.000000,12.000000,0.000000,0.000000,0.000000,0.000000,0.000000,0.000000,0.000000
3420.516572,-0.705500,-1.708700,0.140000,21.000000,23.000000,12.000000,0.000000,0.000000,0.000000,0.000000,0.000000,0.000000,0.000000
3420.572172,-0.698400,-1.715400,0.140000,21.000000,23.000000,12.000000,0.000000,0.000000,0.000000,0.000000,0.000000,0.000000,0.000000
3420.618214,-0.691200,-1.721700,0.140000,21.000000,23.000000,12.000000,0.000000,0.000000,0.000000,0.000000,0.000000,0.000000,0.000000
3420.635576,-0.683900,-1.727500,0.140000,21.000000,23.000000,12.000000,0.000000,0.000000,0.000000,0.000000,0.000000,0.000000,0.000000
3420.676576,-0.676600,-1.732800,0.140000,21.000000,23.000000,12.000000,0.000000,0.000000,0.000000,0.000000,0.000000,0.000000,0.000000
3420.713157,-0.669200,-1.737600,0.140000,21.000000,23.000000,12.000000,0.000000,0.000000,0.000000,0.000000,0.000000,0.000000,0.000000
3420.754199,-0.661800,-1.742000,0.140000,21.000000,23.000000,12.000000,0.000000,0.000000,0.000000,0.000000,0.000000,0.000000,0.000000
3420.797248,-0.654200,-1.745900,0.140000,21.000000,23.000000,12.000000,0.000000,0.000000,0.000000,0.000000,0.000000,0.000000,0.000000
3420.831658,-0.646600,-1.749300,0.140000,21.000000,23.000000,12.000000,0.000000,0.000000,0.000000,0.000000,0.000000,0.000000,0.000000
3420.873157,-0.639000,-1.752300,0.140000,21.000000,23.000000,12.000000,0.000000,0.000000,0.000000,0.000000,0.000000,0.000000,0.000000
3420.937274,-0.631200,-1.754800,0.140000,21.000000,23.000000,12.000000,0.000000,0.000000,0.000000,0.000000,0.000000,0.000000,0.000000
3420.951287,-0.623500,-1.756800,0.140000,21.000000,23.000000,12.000000,0.000000,0.000000,0.000000,0.000000,0.000000,0.000000,0.000000
3420.993325,-0.615600,-1.758300,0.140000,21.000000,23.000000,12.000000,0.000000,0.000000,0.000000,0.000000,0.000000,0.000000,0.000000
3421.032633,-0.607700,-1.759400,0.140000,21.000000,23.000000,12.000000,0.000000,0.000000,0.000000,0.000000,0.000000,0.000000,0.000000
3421.069275,-0.599700,-1.760000,0.140000,21.000000,23.000000,12.000000,0.000000,0.000000,0.000000,0.000000,0.000000,0.000000,0.000000
3421.125295,-0.591700,-1.760200,0.140000,21.000000,23.000000,12.000000,0.000000,0.000000,0.000000,0.000000,0.000000,0.000000,0.000000
3421.173337,-0.583600,-1.759900,0.140000,21.000000,23.000000,12.000000,0.000000,0.000000,0.000000,0.000000,0.000000,0.000000,0.000000
3421.188589,-0.575400,-1.759100,0.140000,21.000000,23.000000,12.000000,0.000000,0.000000,0.000000,0.000000,0.000000,0.000000,0.000000
3421.229589,-0.567200,-1.757900,0.140000,21.000000,23.000000,12.000000,0.000000,0.000000,0.000000,0.000000,0.000000,0.000000,0.000000
3421.266168,-0.559000,-1.756200,0.140000,21.000000,23.000000,12.000000,0.000000,0.000000,0.000000,0.000000,0.000000,0.000000,0.000000
3421.307222,-0.550700,-1.754000,0.140000,21.000000,23.000000,12.000000,0.000000,0.000000,0.000000,0.000000,0.000000,0.000000,0.000000
3421.353344,-0.542300,-1.751400,0.140000,21.000000,23.000000,12.000000,0.000000,0.000000,0.000000,0.000000,0.000000,0.000000,0.000000
3421.385170,-0.533900,-1.748400,0.140000,21.000000,23.000000,12.000000,0.000000,0.000000,0.000000,0.000000,0.000000,0.000000,0.000000
3421.426168,-0.525400,-1.744900,0.140000,21.000000,23.000000,12.000000,0.000000,0.000000,0.000000,0.000000,0.000000,0.000000,0.000000
3421.481194,-0.516800,-1.741000,0.140000,21.000000,23.000000,12.000000,0.000000,0.000000,0.000000,0.000000,0.000000,0.000000,0.000000
3421.526214,-0.508200,-1.736600,0.140000,21.000000,23.000000,12.000000,0.000000,0.000000,0.000000,0.000000,0.000000,0.000000,0.000000
3421.544595,-0.499600,-1.731800,0.140000,21.000000,23.000000,12.000000,0.000000,0.000000,0.000000,0.000000,0.000000,0.000000,0.000000
3421.585597,-0.490900,-1.726600,0.140000,21.000000,23.000000,12.000000,0.000000,0.000000,0.000000,0.000000,0.000000,0.000000,0.000000
3421.622602,-0.482200,-1.720900,0.140000,21.000000,23.000000,12.000000,0.000000,0.000000,0.000000,0.000000,0.000000,0.000000,0.000000
3421.664673,-0.473400,-1.714800,0.140000,21.000000,23.000000,12.000000,0.000000,0.000000,0.000000,0.000000,0.000000,0.000000,0.000000
3421.721725,-0.464600,-1.708300,0.140000,21.000000,23.000000,12.000000,0.000000,0.000000,0.000000,0.000000,0.000000,0.000000,0.000000
3421.741595,-0.455700,-1.701400,0.140000,21.000000,23.000000,12.000000,0.000000,0.000000,0.000000,0.000000,0.000000,0.000000,0.000000
3421.782173,-0.446800,-1.694000,0.140000,21.000000,23.000000,12.000000,0.000000,0.000000,0.000000,0.000000,0.000000,0.000000,0.000000
3421.847169,-0.437800,-1.686300,0.140000,21.000000,23.000000,12.000000,0.000000,0.000000,0.000000,0.000000,0.000000,0.000000,0.000000
3421.860179,-0.428800,-1.678100,0.140000,21.000000,23.000000,12.000000,0.000000,0.000000,0.000000,0.000000,0.000000,0.000000,0.000000
3421.901206,-0.419700,-1.669600,0.140000,21.000000,23.000000,12.000000,0.000000,0.000000,0.000000,0.000000,0.000000,0.000000,0.000000
3421.938130,-0.410600,-1.660600,0.140000,21.000000,23.000000,12.000000,0.000000,0.000000,0.000000,0.000000,0.000000,0.000000,0.000000
3421.978761,-0.401500,-1.651300,0.140000,21.000000,23.000000,12.000000,0.000000,0.000000,0.000000,0.000000,0.000000,0.000000,0.000000
3422.036185,-0.392300,-1.641600,0.140000,21.000000,23.000000,12.000000,0.000000,0.000000,0.000000,0.000000,0.000000,0.000000,0.000000
3422.082226,-0.383100,-1.631400,0.140000,21.000000,23.000000,12.000000,0.000000,0.000000,0.000000,0.000000,0.000000,0.000000,0.000000
3422.097226,-0.373800,-1.621000,0.140000,21.000000,23.000000,12.000000,0.000000,0.000000,0.000000,0.000000,0.000000,0.000000,0.000000
3422.138618,-0.364500,-1.610100,0.140000,21.000000,23.000000,12.000000,0.000000,0.000000,0.000000,0.000000,0.000000,0.000000,0.000000
3422.175594,-0.355200,-1.598900,0.140000,21.000000,23.000000,12.000000,0.000000,0.000000,0.000000,0.000000,0.000000,0.000000,0.000000
3422.217675,-0.345800,-1.587300,0.140000,21.000000,23.000000,12.000000,0.000000,0.000000,0.000000,0.000000,0.000000,0.000000,0.000000
3422.261715,-0.336400,-1.575400,0.140000,21.000000,23.000000,12.000000,0.000000,0.000000,0.000000,0.000000,0.000000,0.000000,0.000000
3422.294174,-0.327000,-1.563100,0.140000,21.000000,23.000000,12.000000,0.000000,0.000000,0.000000,0.000000,0.000000,0.000000,0.000000
3422.335185,-0.317500,-1.550500,0.140000,21.000000,23.000000,12.000000,0.000000,0.000000,0.000000,0.000000,0.000000,0.000000,0.000000
3422.397665,-0.308100,-1.537500,0.140000,21.000000,23.000000,12.000000,0.000000,0.000000,0.000000,0.000000,0.000000,0.000000,0.000000
3422.441705,-0.298500,-1.524200,0.140000,21.000000,23.000000,12.000000,0.000000,0.000000,0.000000,0.000000,0.000000,0.000000,0.000000
3422.454705,-0.289000,-1.510600,0.140000,21.000000,23.000000,12.000000,0.000000,0.000000,0.000000,0.000000,0.000000,0.000000,0.000000
3422.490758,-0.279400,-1.496700,0.140000,21.000000,23.000000,12.000000,0.000000,0.000000,0.000000,0.000000,0.000000,0.000000,0.000000
3422.531656,-0.269800,-1.482400,0.140000,21.000000,23.000000,12.000000,0.000000,0.000000,0.000000,0.000000,0.000000,0.000000,0.000000
3422.577166,-0.260100,-1.467900,0.140000,21.000000,23.000000,12.000000,0.000000,0.000000,0.000000,0.000000,0.000000,0.000000,0.000000
3422.621206,-0.250400,-1.453100,0.140000,21.000000,23.000000,12.000000,0.000000,0.000000,0.000000,0.000000,0.000000,0.000000,0.000000
3422.650502,-0.240800,-1.437900,0.140000,21.000000,23.000000,12.000000,0.000000,0.000000,0.000000,0.000000,0.000000,0.000000,0.000000
3422.691542,-0.231000,-1.422500,0.140000,21.000000,23.000000,12.000000,0.000000,0.000000,0.000000,0.000000,0.000000,0.000000,0.000000
3422.751148,-0.221300,-1.406800,0.140000,21.000000,23.000000,12.000000,0.000000,0.000000,0.000000,0.000000,0.000000,0.000000,0.000000
3422.796189,-0.211500,-1.390900,0.140000,21.000000,23.000000,12.000000,0.000000,0.000000,0.000000,0.000000,0.000000,0.000000,0.000000
3422.808200,-0.201700,-1.374600,0.140000,21.000000,23.000000,12.000000,0.000000,0.000000,0.000000,0.000000,0.000000,0.000000,0.000000
3422.847195,-0.191900,-1.358200,0.140000,21.000000,23.000000,12.000000,0.000000,0.000000,0.000000,0.000000,0.000000,0.000000,0.000000
3422.888147,-0.182100,-1.341400,0.140000,21.000000,23.000000,12.000000,0.000000,0.000000,0.000000,0.000000,0.000000,0.000000,0.000000
3422.935178,-0.172300,-1.324500,0.140000,21.000000,23.000000,12.000000,0.000000,0.000000,0.000000,0.000000,0.000000,0.000000,0.000000
3422.980219,-0.162400,-1.307200,0.140000,21.000000,23.000000,12.000000,0.000000,0.000000,0.000000,0.000000,0.000000,0.000000,0.000000
3423.006230,-0.152500,-1.289800,0.140000,21.000000,23.000000,12.000000,0.000000,0.000000,0.000000,0.000000,0.000000,0.000000,0.000000
3423.043581,-0.142700,-1.272200,0.140000,21.000000,23.000000,12.000000,0.000000,0.000000,0.000000,0.000000,0.000000,0.000000,0.000000
3423.115646,-0.132700,-1.254300,0.140000,21.000000,23.000000,12.000000,0.000000,0.000000,0.000000,0.000000,0.000000,0.000000,0.000000
3423.125655,-0.122800,-1.236200,0.140000,21.000000,23.000000,12.000000,0.000000,0.000000,0.000000,0.000000,0.000000,0.000000,0.000000
3423.164691,-0.112900,-1.218000,0.140000,21.000000,23.000000,12.000000,0.000000,0.000000,0.000000,0.000000,0.000000,0.000000,0.000000
3423.202726,-0.103000,-1.199500,0.140000,21.000000,23.000000,12.000000,0.000000,0.000000,0.000000,0.000000,0.000000,0.000000,0.000000
3423.243762,-0.093000,-1.180900,0.140000,21.000000,23.000000,12.000000,0.000000,0.000000,0.000000,0.000000,0.000000,0.000000,0.000000
3423.294809,-0.083000,-1.162100,0.140000,21.000000,23.000000,12.000000,0.000000,0.000000,0.000000,0.000000,0.000000,0.000000,0.000000
3423.341841,-0.073100,-1.143100,0.140000,21.000000,23.000000,12.000000,0.000000,0.000000,0.000000,0.000000,0.000000,0.000000,0.000000
3423.358856,-0.063100,-1.123900,0.140000,21.000000,23.000000,12.000000,0.000000,0.000000,0.000000,0.000000,0.000000,0.000000,0.000000
3423.399895,-0.053100,-1.104700,0.140000,21.000000,23.000000,12.000000,0.000000,0.000000,0.000000,0.000000,0.000000,0.000000,0.000000
3423.462953,-0.043100,-1.085200,0.140000,21.000000,23.000000,12.000000,0.000000,0.000000,0.000000,0.000000,0.000000,0.000000,0.000000
3423.477965,-0.033100,-1.065700,0.140000,21.000000,23.000000,12.000000,0.000000,0.000000,0.000000,0.000000,0.000000,0.000000,0.000000
3423.525008,-0.023100,-1.046000,0.140000,21.000000,23.000000,12.000000,0.000000,0.000000,0.000000,0.000000,0.000000,0.000000,0.000000
3423.560040,-0.013100,-1.026200,0.140000,21.000000,23.000000,12.000000,0.000000,0.000000,0.000000,0.000000,0.000000,0.000000,0.000000
3423.596072,-0.003100,-1.006300,0.140000,21.000000,23.000000,12.000000,0.000000,0.000000,0.000000,0.000000,0.000000,0.000000,0.000000
3423.655137,0.006900,-0.986200,0.140000,21.000000,23.000000,12.000000,0.000000,0.000000,0.000000,0.000000,0.000000,0.000000,0.000000
3423.702179,0.016900,-0.966100,0.140000,21.000000,23.000000,12.000000,0.000000,0.000000,0.000000,0.000000,0.000000,0.000000,0.000000
3423.711187,0.026900,-0.945900,0.140000,21.000000,23.000000,12.000000,0.000000,0.000000,0.000000,0.000000,0.000000,0.000000,0.000000
3423.752624,0.036900,-0.925700,0.140000,21.000000,23.000000,12.000000,0.000000,0.000000,0.000000,0.000000,0.000000,0.000000,0.000000
3423.789203,0.046800,-0.905300,0.140000,21.000000,23.000000,12.000000,0.000000,0.000000,0.000000,0.000000,0.000000,0.000000,0.000000
3423.836154,0.056800,-0.884900,0.140000,21.000000,23.000000,12.000000,0.000000,0.000000,0.000000,0.000000,0.000000,0.000000,0.000000
3423.882196,0.066800,-0.864400,0.140000,21.000000,23.000000,12.000000,0.000000,0.000000,0.000000,0.000000,0.000000,0.000000,0.000000
3423.904205,0.076800,-0.843900,0.140000,21.000000,23.000000,12.000000,0.000000,0.000000,0.000000,0.000000,0.000000,0.000000,0.000000
3423.945206,0.086800,-0.823400,0.140000,21.000000,23.000000,12.000000,0.000000,0.000000,0.000000,0.000000,0.000000,0.000000,0.000000
3424.011701,0.096700,-0.802800,0.140000,21.000000,23.000000,12.000000,0.000000,0.000000,0.000000,0.000000,0.000000,0.000000,0.000000
3424.023712,0.106700,-0.782200,0.140000,21.000000,23.000000,12.000000,0.000000,0.000000,0.000000,0.000000,0.000000,0.000000,0.000000
3424.066751,0.116600,-0.761600,0.140000,21.000000,23.000000,12.000000,0.000000,0.000000,0.000000,0.000000,0.000000,0.000000,0.000000
3424.096643,0.126500,-0.740900,0.140000,21.000000,23.000000,12.000000,0.000000,0.000000,0.000000,0.000000,0.000000,0.000000,0.000000
3424.137643,0.136400,-0.720300,0.140000,21.000000,23.000000,12.000000,0.000000,0.000000,0.000000,0.000000,0.000000,0.000000,0.000000
3424.205198,0.146300,-0.699700,0.140000,21.000000,23.000000,12.000000,0.000000,0.000000,0.000000,0.000000,0.000000,0.000000,0.000000
3424.216208,0.156200,-0.679100,0.140000,21.000000,23.000000,12.000000,0.000000,0.000000,0.000000,0.000000,0.000000,0.000000,0.000000
3424.252228,0.166100,-0.658500,0.140000,21.000000,23.000000,12.000000,0.000000,0.000000,0.000000,0.000000,0.000000,0.000000,0.000000
3424.289225,0.175900,-0.638000,0.140000,21.000000,23.000000,12.000000,0.000000,0.000000,0.000000,0.000000,0.000000,0.000000,0.000000
3424.330196,0.185800,-0.617500,0.140000,21.000000,23.000000,12.000000,0.000000,0.000000,0.000000,0.000000,0.000000,0.000000,0.000000
3424.382180,0.195600,-0.597000,0.140000,21.000000,23.000000,12.000000,0.000000,0.000000,0.000000,0.000000,0.000000,0.000000,0.000000
3424.430224,0.205400,-0.576600,0.140000,21.000000,23.000000,12.000000,0.000000,0.000000,0.000000,0.000000,0.000000,0.000000,0.000000
3424.444237,0.215200,-0.556300,0.140000,21.000000,23.000000,12.000000,0.000000,0.000000,0.000000,0.000000,0.000000,0.000000,0.000000
3424.481650,0.224900,-0.536000,0.140000,21.000000,23.000000,12.000000,0.000000,0.000000,0.000000,0.000000,0.000000,0.000000,0.000000
3424.522662,0.234700,-0.515900,0.140000,21.000000,23.000000,12.000000,0.000000,0.000000,0.000000,0.000000,0.000000,0.000000,0.000000
3424.562321,0.244400,-0.495800,0.140000,21.000000,23.000000,12.000000,0.000000,0.000000,0.000000,0.000000,0.000000,0.000000,0.000000
3424.608362,0.254100,-0.475800,0.140000,21.000000,23.000000,12.000000,0.000000,0.000000,0.000000,0.000000,0.000000,0.000000,0.000000
3424.637232,0.263700,-0.455800,0.140000,21.000000,23.000000,12.000000,0.000000,0.000000,0.000000,0.000000,0.000000,0.000000,0.000000
3424.674233,0.273300,-0.436000,0.140000,21.000000,23.000000,12.000000,0.000000,0.000000,0.000000,0.000000,0.000000,0.000000,0.000000
3424.754672,0.283000,-0.416400,0.140000,21.000000,23.000000,12.000000,0.000000,0.000000,0.000000,0.000000,0.000000,0.000000,0.000000
3424.757684,0.292500,-0.396800,0.140000,21.000000,23.000000,12.000000,0.000000,0.000000,0.000000,0.000000,0.000000,0.000000,0.000000
3424.801724,0.302100,-0.377400,0.140000,21.000000,23.000000,12.000000,0.000000,0.000000,0.000000,0.000000,0.000000,0.000000,0.000000
3424.828763,0.311600,-0.358100,0.140000,21.000000,23.000000,12.000000,0.000000,0.000000,0.000000,0.000000,0.000000,0.000000,0.000000
3424.866559,0.321100,-0.338900,0.140000,21.000000,23.000000,12.000000,0.000000,0.000000,0.000000,0.000000,0.000000,0.000000,0.000000
3424.931174,0.330500,-0.319900,0.140000,21.000000,23.000000,12.000000,0.000000,0.000000,0.000000,0.000000,0.000000,0.000000,0.000000
3424.945186,0.340000,-0.301000,0.140000,21.000000,23.000000,12.000000,0.000000,0.000000,0.000000,0.000000,0.000000,0.000000,0.000000
3424.981219,0.349300,-0.282300,0.140000,21.000000,23.000000,12.000000,0.000000,0.000000,0.000000,0.000000,0.000000,0.000000,0.000000
3425.022237,0.358700,-0.263800,0.140000,21.000000,23.000000,12.000000,0.000000,0.000000,0.000000,0.000000,0.000000,0.000000,0.000000
3425.059238,0.368000,-0.245400,0.140000,21.000000,23.000000,12.000000,0.000000,0.000000,0.000000,0.000000,0.000000,0.000000,0.000000
3425.115226,0.377300,-0.227300,0.140000,21.000000,23.000000,12.000000,0.000000,0.000000,0.000000,0.000000,0.000000,0.000000,0.000000
3425.162268,0.386500,-0.209300,0.140000,21.000000,23.000000,12.000000,0.000000,0.000000,0.000000,0.000000,0.000000,0.000000,0.000000
3425.174279,0.395700,-0.191500,0.140000,21.000000,23.000000,12.000000,0.000000,0.000000,0.000000,0.000000,0.000000,0.000000,0.000000
3425.214713,0.404900,-0.173900,0.140000,21.000000,23.000000,12.000000,0.000000,0.000000,0.000000,0.000000,0.000000,0.000000,0.000000
3425.251506,0.414000,-0.156500,0.140000,21.000000,23.000000,12.000000,0.000000,0.000000,0.000000,0.000000,0.000000,0.000000,0.000000
3425.293725,0.423100,-0.139300,0.140000,21.000000,23.000000,12.000000,0.000000,0.000000,0.000000,0.000000,0.000000,0.000000,0.000000
3425.339767,0.432100,-0.122400,0.140000,21.000000,23.000000,12.000000,0.000000,0.000000,0.000000,0.000000,0.000000,0.000000,0.000000
3425.365426,0.441100,-0.105600,0.140000,21.000000,23.000000,12.000000,0.000000,0.000000,0.000000,0.000000,0.000000,0.000000,0.000000
3425.406748,0.450100,-0.089100,0.140000,21.000000,23.000000,12.000000,0.000000,0.000000,0.000000,0.000000,0.000000,0.000000,0.000000
3425.471150,0.459000,-0.072800,0.140000,21.000000,23.000000,12.000000,0.000000,0.000000,0.000000,0.000000,0.000000,0.000000,0.000000
3425.481159,0.467900,-0.056800,0.140000,21.000000,23.000000,12.000000,0.000000,0.000000,0.000000,0.000000,0.000000,0.000000,0.000000
3425.523197,0.476700,-0.041000,0.140000,21.000000,23.000000,12.000000,0.000000,0.000000,0.000000,0.000000,0.000000,0.000000,0.000000
3425.558662,0.485400,-0.025400,0.140000,21.000000,23.000000,12.000000,0.000000,0.000000,0.000000,0.000000,0.000000,0.000000,0.000000
3425.595659,0.494200,-0.010100,0.140000,21.000000,23.000000,12.000000,0.000000,0.000000,0.000000,0.000000,0.000000,0.000000,0.000000
3425.656288,0.502800,0.004900,0.140000,21.000000,23.000000,12.000000,0.000000,0.000000,0.000000,0.000000,0.000000,0.000000,0.000000
3425.677299,0.511500,0.019700,0.140000,21.000000,23.000000,12.000000,0.000000,0.000000,0.000000,0.000000,0.000000,0.000000,0.000000
3425.711338,0.520000,0.034200,0.140000,21.000000,23.000000,12.000000,0.000000,0.000000,0.000000,0.000000,0.000000,0.000000,0.000000
3425.746333,0.528500,0.048500,0.140000,21.000000,23.000000,12.000000,0.000000,0.000000,0.000000,0.000000,0.000000,0.000000,0.000000
3425.784241,0.537000,0.062400,0.140000,21.000000,23.000000,12.000000,0.000000,0.000000,0.000000,0.000000,0.000000,0.000000,0.000000
3425.841212,0.545400,0.076100,0.140000,21.000000,23.000000,12.000000,0.000000,0.000000,0.000000,0.000000,0.000000,0.000000,0.000000
3425.877245,0.553800,0.089500,0.140000,21.000000,23.000000,12.000000,0.000000,0.000000,0.000000,0.000000,0.000000,0.000000,0.000000
3425.898264,0.562100,0.102700,0.140000,21.000000,23.000000,12.000000,0.000000,0.000000,0.000000,0.000000,0.000000,0.000000,0.000000
3425.935616,0.570300,0.115500,0.140000,21.000000,23.000000,12.000000,0.000000,0.000000,0.000000,0.000000,0.000000,0.000000,0.000000
3425.972666,0.578500,0.128000,0.140000,21.000000,23.000000,12.000000,0.000000,0.000000,0.000000,0.000000,0.000000,0.000000,0.000000
3426.021148,0.586600,0.140300,0.140000,21.000000,23.000000,12.000000,0.000000,0.000000,0.000000,0.000000,0.000000,0.000000,0.000000
3426.069225,0.594700,0.152300,0.140000,21.000000,23.000000,12.000000,0.000000,0.000000,0.000000,0.000000,0.000000,0.000000,0.000000
3426.083237,0.602700,0.163900,0.140000,21.000000,23.000000,12.000000,0.000000,0.000000,0.000000,0.000000,0.000000,0.000000,0.000000
3426.119701,0.610600,0.175200,0.140000,21.000000,23.000000,12.000000,0.000000,0.000000,0.000000,0.000000,0.000000,0.000000,0.000000
3426.156673,0.618500,0.186300,0.140000,21.000000,23.000000,12.000000,0.000000,0.000000,0.000000,0.000000,0.000000,0.000000,0.000000
3426.202706,0.626400,0.197000,0.140000,21.000000,23.000000,12.000000,0.000000,0.000000,0.000000,0.000000,0.000000,0.000000,0.000000
3426.247757,0.634100,0.207400,0.140000,21.000000,23.000000,12.000000,0.000000,0.000000,0.000000,0.000000,0.000000,0.000000,0.000000
3426.271651,0.641800,0.217500,0.140000,21.000000,23.000000,12.000000,0.000000,0.000000,0.000000,0.000000,0.000000,0.000000,0.000000
3426.307507,0.649500,0.227300,0.140000,21.000000,23.000000,12.000000,0.000000,0.000000,0.000000,0.000000,0.000000,0.000000,0.000000
3426.345261,0.657000,0.236800,0.140000,21.000000,23.000000,12.000000,0.000000,0.000000,0.000000,0.000000,0.000000,0.000000,0.000000
3426.387176,0.664500,0.245900,0.140000,21.000000,23.000000,12.000000,0.000000,0.000000,0.000000,0.000000,0.000000,0.000000,0.000000
3426.434219,0.672000,0.254700,0.140000,21.000000,23.000000,12.000000,0.000000,0.000000,0.000000,0.000000,0.000000,0.000000,0.000000
3426.459842,0.679400,0.263200,0.140000,21.000000,23.000000,12.000000,0.000000,0.000000,0.000000,0.000000,0.000000,0.000000,0.000000
3426.496736,0.686700,0.271400,0.140000,21.000000,23.000000,12.000000,0.000000,0.000000,0.000000,0.000000,0.000000,0.000000,0.000000
3426.533687,0.693900,0.279200,0.140000,21.000000,23.000000,12.000000,0.000000,0.000000,0.000000,0.000000,0.000000,0.000000,0.000000
3426.577166,0.701100,0.286800,0.140000,21.000000,23.000000,12.000000,0.000000,0.000000,0.000000,0.000000,0.000000,0.000000,0.000000
3426.624209,0.708200,0.293900,0.140000,21.000000,23.000000,12.000000,0.000000,0.000000,0.000000,0.000000,0.000000,0.000000,0.000000
3426.644257,0.715200,0.300800,0.140000,21.000000,23.000000,12.000000,0.000000,0.000000,0.000000,0.000000,0.000000,0.000000,0.000000
3426.681269,0.722100,0.307300,0.140000,21.000000,23.000000,12.000000,0.000000,0.000000,0.000000,0.000000,0.000000,0.000000,0.000000
3426.722270,0.729000,0.313500,0.140000,21.000000,23.000000,12.000000,0.000000,0.000000,0.000000,0.000000,0.000000,0.000000,0.000000
3426.769284,0.735800,0.319400,0.140000,21.000000,23.000000,12.000000,0.000000,0.000000,0.000000,0.000000,0.000000,0.000000,0.000000
3426.816325,0.742600,0.324900,0.140000,21.000000,23.000000,12.000000,0.000000,0.000000,0.000000,0.000000,0.000000,0.000000,0.000000
3426.832682,0.749200,0.330100,0.140000,21.000000,23.000000,12.000000,0.000000,0.000000,0.000000,0.000000,0.000000,0.000000,0.000000
3426.869693,0.755800,0.335000,0.140000,21.000000,23.000000,12.000000,0.000000,0.000000,0.000000,0.000000,0.000000,0.000000,0.000000
3426.906274,0.762300,0.339500,0.140000,21.000000,23.000000,12.000000,0.000000,0.000000,0.000000,0.000000,0.000000,0.000000,0.000000
3426.956280,0.768700,0.343800,0.140000,21.000000,23.000000,12.000000,0.000000,0.000000,0.000000,0.000000,0.000000,0.000000,0.000000
3427.003322,0.775100,0.347600,0.140000,21.000000,23.000000,12.000000,0.000000,0.000000,0.000000,0.000000,0.000000,0.000000,0.000000
3427.020338,0.781400,0.351200,0.140000,21.000000,23.000000,12.000000,0.000000,0.000000,0.000000,0.000000,0.000000,0.000000,0.000000
3427.057334,0.787600,0.354400,0.140000,21.000000,23.000000,12.000000,0.000000,0.000000,0.000000,0.000000,0.000000,0.000000,0.000000
3427.094711,0.793700,0.357300,0.140000,21.000000,23.000000,12.000000,0.000000,0.000000,0.000000,0.000000,0.000000,0.000000,0.000000
3427.138213,0.799800,0.359900,0.140000,21.000000,23.000000,12.000000,0.000000,0.000000,0.000000,0.000000,0.000000,0.000000,0.000000
3427.183254,0.805700,0.362200,0.140000,21.000000,23.000000,12.000000,0.000000,0.000000,0.000000,0.000000,0.000000,0.000000,0.000000
3427.204523,0.811600,0.364100,0.140000,21.000000,23.000000,12.000000,0.000000,0.000000,0.000000,0.000000,0.000000,0.000000,0.000000
3427.242269,0.817400,0.365700,0.140000,21.000000,23.000000,12.000000,0.000000,0.000000,0.000000,0.000000,0.000000,0.000000,0.000000
3427.311548,0.823100,0.367000,0.140000,21.000000,23.000000,12.000000,0.000000,0.000000,0.000000,0.000000,0.000000,0.000000,0.000000
3427.319554,0.828800,0.368000,0.140000,21.000000,23.000000,12.000000,0.000000,0.000000,0.000000,0.000000,0.000000,0.000000,0.000000
3427.358602,0.834300,0.368600,0.140000,21.000000,23.000000,12.000000,0.000000,0.000000,0.000000,0.000000,0.000000,0.000000,0.000000
3427.393510,0.839800,0.369000,0.140000,21.000000,23.000000,12.000000,0.000000,0.000000,0.000000,0.000000,0.000000,0.000000,0.000000
3427.430493,0.845200,0.369000,0.140000,21.000000,23.000000,12.000000,0.000000,0.000000,0.000000,0.000000,0.000000,0.000000,0.000000
3427.491429,0.850500,0.368700,0.140000,21.000000,23.000000,12.000000,0.000000,0.000000,0.000000,0.000000,0.000000,0.000000,0.000000
3427.504440,0.855700,0.368100,0.140000,21.000000,23.000000,12.000000,0.000000,0.000000,0.000000,0.000000,0.000000,0.000000,0.000000
3427.541474,0.860800,0.367200,0.140000,21.000000,23.000000,12.000000,0.000000,0.000000,0.000000,0.000000,0.000000,0.000000,0.000000
3427.581456,0.865900,0.366100,0.140000,21.000000,23.000000,12.000000,0.000000,0.000000,0.000000,0.000000,0.000000,0.000000,0.000000
3427.619275,0.870800,0.364600,0.140000,21.000000,23.000000,12.000000,0.000000,0.000000,0.000000,0.000000,0.000000,0.000000,0.000000
3427.671150,0.875700,0.362800,0.140000,21.000000,23.000000,12.000000,0.000000,0.000000,0.000000,0.000000,0.000000,0.000000,0.000000
3427.728202,0.880500,0.360800,0.140000,21.000000,23.000000,12.000000,0.000000,0.000000,0.000000,0.000000,0.000000,0.000000,0.000000
3427.732206,0.885200,0.358400,0.140000,21.000000,23.000000,12.000000,0.000000,0.000000,0.000000,0.000000,0.000000,0.000000,0.000000
3427.766711,0.889800,0.355800,0.140000,21.000000,23.000000,12.000000,0.000000,0.000000,0.000000,0.000000,0.000000,0.000000,0.000000
3427.802498,0.894300,0.352900,0.140000,21.000000,23.000000,12.000000,0.000000,0.000000,0.000000,0.000000,0.000000,0.000000,0.000000
3427.861591,0.898700,0.349700,0.140000,21.000000,23.000000,12.000000,0.000000,0.000000,0.000000,0.000000,0.000000,0.000000,0.000000
3427.904629,0.903100,0.346200,0.140000,21.000000,23.000000,12.000000,0.000000,0.000000,0.000000,0.000000,0.000000,0.000000,0.000000
3427.917641,0.907300,0.342500,0.140000,21.000000,23.000000,12.000000,0.000000,0.000000,0.000000,0.000000,0.000000,0.000000,0.000000
3427.954870,0.911500,0.338500,0.140000,21.000000,23.000000,12.000000,0.000000,0.000000,0.000000,0.000000,0.000000,0.000000,0.000000
3427.991674,0.915600,0.334300,0.140000,21.000000,23.000000,12.000000,0.000000,0.000000,0.000000,0.000000,0.000000,0.000000,0.000000
3428.036176,0.919500,0.329800,0.140000,21.000000,23.000000,12.000000,0.000000,0.000000,0.000000,0.000000,0.000000,0.000000,0.000000
3428.079215,0.923400,0.325000,0.140000,21.000000,23.000000,12.000000,0.000000,0.000000,0.000000,0.000000,0.000000,0.000000,0.000000
3428.101494,0.927200,0.320000,0.140000,21.000000,23.000000,12.000000,0.000000,0.000000,0.000000,0.000000,0.000000,0.000000,0.000000
3428.143297,0.930900,0.314800,0.140000,21.000000,23.000000,12.000000,0.000000,0.000000,0.000000,0.000000,0.000000,0.000000,0.000000
3428.197610,0.934500,0.309300,0.140000,21.000000,23.000000,12.000000,0.000000,0.000000,0.000000,0.000000,0.000000,0.000000,0.000000
3428.219629,0.938000,0.303600,0.140000,21.000000,23.000000,12.000000,0.000000,0.000000,0.000000,0.000000,0.000000,0.000000,0.000000
3428.260667,0.941400,0.297700,0.140000,21.000000,23.000000,12.000000,0.000000,0.000000,0.000000,0.000000,0.000000,0.000000,0.000000
3428.290173,0.944800,0.291500,0.140000,21.000000,23.000000,12.000000,0.000000,0.000000,0.000000,0.000000,0.000000,0.000000,0.000000
3428.327286,0.948000,0.285200,0.140000,21.000000,23.000000,12.000000,0.000000,0.000000,0.000000,0.000000,0.000000,0.000000,0.000000
3428.393376,0.951100,0.278600,0.140000,21.000000,23.000000,12.000000,0.000000,0.000000,0.000000,0.000000,0.000000,0.000000,0.000000
3428.405387,0.954200,0.271800,0.140000,21.000000,23.000000,12.000000,0.000000,0.000000,0.000000,0.000000,0.000000,0.000000,0.000000
3428.442411,0.957100,0.264800,0.140000,21.000000,23.000000,12.000000,0.000000,0.000000,0.000000,0.000000,0.000000,0.000000,0.000000
3428.478431,0.960000,0.257700,0.140000,21.000000,23.000000,12.000000,0.000000,0.000000,0.000000,0.000000,0.000000,0.000000,0.000000
3428.516292,0.962700,0.250300,0.140000,21.000000,23.000000,12.000000,0.000000,0.000000,0.000000,0.000000,0.000000,0.000000,0.000000
3428.573151,0.965400,0.242800,0.140000,21.000000,23.000000,12.000000,0.000000,0.000000,0.000000,0.000000,0.000000,0.000000,0.000000
3428.616200,0.967900,0.235100,0.140000,21.000000,23.000000,12.000000,0.000000,0.000000,0.000000,0.000000,0.000000,0.000000,0.000000
3428.627210,0.970400,0.227200,0.140000,21.000000,23.000000,12.000000,0.000000,0.000000,0.000000,0.000000,0.000000,0.000000,0.000000
3428.663777,0.972800,0.219200,0.140000,21.000000,23.000000,12.000000,0.000000,0.000000,0.000000,0.000000,0.000000,0.000000,0.000000
3428.704731,0.975000,0.211000,0.140000,21.000000,23.000000,12.000000,0.000000,0.000000,0.000000,0.000000,0.000000,0.000000,0.000000
3428.756183,0.977200,0.202600,0.140000,21.000000,23.000000,12.000000,0.000000,0.000000,0.000000,0.000000,0.000000,0.000000,0.000000
3428.799222,0.979300,0.194100,0.140000,21.000000,23.000000,12.000000,0.000000,0.000000,0.000000,0.000000,0.000000,0.000000,0.000000
3428.815311,0.981300,0.185500,0.140000,21.000000,23.000000,12.000000,0.000000,0.000000,0.000000,0.000000,0.000000,0.000000,0.000000
3428.851499,0.983100,0.176700,0.140000,21.000000,23.000000,12.000000,0.000000,0.000000,0.000000,0.000000,0.000000,0.000000,0.000000
3428.888726,0.984900,0.167800,0.140000,21.000000,23.000000,12.000000,0.000000,0.000000,0.000000,0.000000,0.000000,0.000000,0.000000
3428.932161,0.986600,0.158800,0.140000,21.000000,23.000000,12.000000,0.000000,0.000000,0.000000,0.000000,0.000000,0.000000,0.000000
3428.980204,0.988200,0.149700,0.140000,21.000000,23.000000,12.000000,0.000000,0.000000,0.000000,0.000000,0.000000,0.000000,0.000000
3429.003784,0.989700,0.140400,0.140000,21.000000,23.000000,12.000000,0.000000,0.000000,0.000000,0.000000,0.000000,0.000000,0.000000
3429.040315,0.991000,0.131100,0.140000,21.000000,23.000000,12.000000,0.000000,0.000000,0.000000,0.000000,0.000000,0.000000,0.000000
3429.077337,0.992300,0.121700,0.140000,21.000000,23.000000,12.000000,0.000000,0.000000,0.000000,0.000000,0.000000,0.000000,0.000000
3429.117416,0.993500,0.112200,0.140000,21.000000,23.000000,12.000000,0.000000,0.000000,0.000000,0.000000,0.000000,0.000000,0.000000
3429.161445,0.994600,0.102600,0.140000,21.000000,23.000000,12.000000,0.000000,0.000000,0.000000,0.000000,0.000000,0.000000,0.000000
3429.187541,0.995600,0.092900,0.140000,21.000000,23.000000,12.000000,0.000000,0.000000,0.000000,0.000000,0.000000,0.000000,0.000000
3429.224739,0.996500,0.083200,0.140000,21.000000,23.000000,12.000000,0.000000,0.000000,0.000000,0.000000,0.000000,0.000000,0.000000
3429.291174,0.997300,0.073400,0.140000,21.000000,23.000000,12.000000,0.000000,0.000000,0.000000,0.000000,0.000000,0.000000,0.000000
3429.302184,0.998000,0.063600,0.140000,21.000000,23.000000,12.000000,0.000000,0.000000,0.000000,0.000000,0.000000,0.000000,0.000000
3429.339218,0.998500,0.053700,0.140000,21.000000,23.000000,12.000000,0.000000,0.000000,0.000000,0.000000,0.000000,0.000000,0.000000
3429.376282,0.999000,0.043800,0.140000,21.000000,23.000000,12.000000,0.000000,0.000000,0.000000,0.000000,0.000000,0.000000,0.000000
3429.413322,0.999400,0.033900,0.140000,21.000000,23.000000,12.000000,0.000000,0.000000,0.000000,0.000000,0.000000,0.000000,0.000000
3429.476810,0.999700,0.023900,0.140000,21.000000,23.000000,12.000000,0.000000,0.000000,0.000000,0.000000,0.000000,0.000000,0.000000
3429.487820,0.999900,0.013900,0.140000,21.000000,23.000000,12.000000,0.000000,0.000000,0.000000,0.000000,0.000000,0.000000,0.000000
3429.528857,1.000000,0.003900,0.140000,21.000000,23.000000,12.000000,0.000000,0.000000,0.000000,0.000000,0.000000,0.000000,0.000000
3429.564775,1.000000,-0.006100,0.140000,21.000000,23.000000,12.000000,0.000000,0.000000,0.000000,0.000000,0.000000,0.000000,0.000000
3429.601460,0.999900,-0.016100,0.140000,21.000000,23.000000,12.000000,0.000000,0.000000,0.000000,0.000000,0.000000,0.000000,0.000000
3429.653163,0.999700,-0.026100,0.140000,21.000000,23.000000,12.000000,0.000000,0.000000,0.000000,0.000000,0.000000,0.000000,0.000000
3429.700205,0.999300,-0.036000,0.140000,21.000000,23.000000,12.000000,0.000000,0.000000,0.000000,0.000000,0.000000,0.000000,0.000000
3429.716223,0.998900,-0.046000,0.140000,21.000000,23.000000,12.000000,0.000000,0.000000,0.000000,0.000000,0.000000,0.000000,0.000000
3429.757309,0.998400,-0.055900,0.140000,21.000000,23.000000,12.000000,0.000000,0.000000,0.000000,0.000000,0.000000,0.000000,0.000000
3429.793900,0.997800,-0.065800,0.140000,21.000000,23.000000,12.000000,0.000000,0.000000,0.000000,0.000000,0.000000,0.000000,0.000000
3429.834938,0.997100,-0.075600,0.140000,21.000000,23.000000,12.000000,0.000000,0.000000,0.000000,0.000000,0.000000,0.000000,0.000000
3429.885985,0.996300,-0.085400,0.140000,21.000000,23.000000,12.000000,0.000000,0.000000,0.000000,0.000000,0.000000,0.000000,0.000000
3429.908129,0.995400,-0.095100,0.140000,21.000000,23.000000,12.000000,0.000000,0.000000,0.000000,0.000000,0.000000,0.000000,0.000000
3429.949517,0.994400,-0.104700,0.140000,21.000000,23.000000,12.000000,0.000000,0.000000,0.000000,0.000000,0.000000,0.000000,0.000000
3429.986765,0.993300,-0.114300,0.140000,21.000000,23.000000,12.000000,0.000000,0.000000,0.000000,0.000000,0.000000,0.000000,0.000000
3430.028183,0.992100,-0.123800,0.140000,21.000000,23.000000,12.000000,0.000000,0.000000,0.000000,0.000000,0.000000,0.000000,0.000000
3430.068206,0.990800,-0.133200,0.140000,21.000000,23.000000,12.000000,0.000000,0.000000,0.000000,0.000000,0.000000,0.000000,0.000000
3430.101323,0.989300,-0.142500,0.140000,21.000000,23.000000,12.000000,0.000000,0.000000,0.000000,0.000000,0.000000,0.000000,0.000000
3430.142338,0.987800,-0.151700,0.140000,21.000000,23.000000,12.000000,0.000000,0.000000,0.000000,0.000000,0.000000,0.000000,0.000000
3430.202109,0.986200,-0.160800,0.140000,21.000000,23.000000,12.000000,0.000000,0.000000,0.000000,0.000000,0.000000,0.000000,0.000000
3430.246149,0.984500,-0.169800,0.140000,21.000000,23.000000,12.000000,0.000000,0.000000,0.000000,0.000000,0.000000,0.000000,0.000000
3430.257159,0.982700,-0.178600,0.140000,21.000000,23.000000,12.000000,0.000000,0.000000,0.000000,0.000000,0.000000,0.000000,0.000000
3430.293762,0.980800,-0.187400,0.140000,21.000000,23.000000,12.000000,0.000000,0.000000,0.000000,0.000000,0.000000,0.000000,0.000000
3430.333846,0.978800,-0.196000,0.140000,21.000000,23.000000,12.000000,0.000000,0.000000,0.000000,0.000000,0.000000,0.000000,0.000000
3430.388185,0.976700,-0.204500,0.140000,21.000000,23.000000,12.000000,0.000000,0.000000,0.000000,0.000000,0.000000,0.000000,0.000000
3430.433212,0.974500,-0.212800,0.140000,21.000000,23.000000,12.000000,0.000000,0.000000,0.000000,0.000000,0.000000,0.000000,0.000000
3430.449330,0.972300,-0.220900,0.140000,21.000000,23.000000,12.000000,0.000000,0.000000,0.000000,0.000000,0.000000,0.000000,0.000000
3430.486343,0.969900,-0.228900,0.140000,21.000000,23.000000,12.000000,0.000000,0.000000,0.000000,0.000000,0.000000,0.000000,0.000000
3430.527182,0.967400,-0.236800,0.140000,21.000000,23.000000,12.000000,0.000000,0.000000,0.000000,0.000000,0.000000,0.000000,0.000000
3430.566247,0.964800,-0.244500,0.140000,21.000000,23.000000,12.000000,0.000000,0.000000,0.000000,0.000000,0.000000,0.000000,0.000000
3430.605282,0.962100,-0.252000,0.140000,21.000000,23.000000,12.000000,0.000000,0.000000,0.000000,0.000000,0.000000,0.000000,0.000000
3430.641755,0.959300,-0.259300,0.140000,21.000000,23.000000,12.000000,0.000000,0.000000,0.000000,0.000000,0.000000,0.000000,0.000000
3430.678775,0.956500,-0.266400,0.140000,21.000000,23.000000,12.000000,0.000000,0.000000,0.000000,0.000000,0.000000,0.000000,0.000000
3430.749186,0.953500,-0.273300,0.140000,21.000000,23.000000,12.000000,0.000000,0.000000,0.000000,0.000000,0.000000,0.000000,0.000000
3430.757193,0.950500,-0.280100,0.140000,21.000000,23.000000,12.000000,0.000000,0.000000,0.000000,0.000000,0.000000,0.000000,0.000000
3430.793227,0.947300,-0.286600,0.140000,21.000000,23.000000,12.000000,0.000000,0.000000,0.000000,0.000000,0.000000,0.000000,0.000000
3430.834299,0.944000,-0.292900,0.140000,21.000000,23.000000,12.000000,0.000000,0.000000,0.000000,0.000000,0.000000,0.000000,0.000000
3430.871148,0.940700,-0.299000,0.140000,21.000000,23.000000,12.000000,0.000000,0.000000,0.000000,0.000000,0.000000,0.000000,0.000000
3430.924213,0.937300,-0.304900,0.140000,21.000000,23.000000,12.000000,0.000000,0.000000,0.000000,0.000000,0.000000,0.000000,0.000000
3430.973252,0.933700,-0.310500,0.140000,21.000000,23.000000,12.000000,0.000000,0.000000,0.000000,0.000000,0.000000,0.000000,0.000000
3430.987265,0.930100,-0.316000,0.140000,21.000000,23.000000,12.000000,0.000000,0.000000,0.000000,0.000000,0.000000,0.000000,0.000000
3431.026773,0.926400,-0.321100,0.140000,21.000000,23.000000,12.000000,0.000000,0.000000,0.000000,0.000000,0.000000,0.000000,0.000000
3431.063487,0.922600,-0.326100,0.140000,21.000000,23.000000,12.000000,0.000000,0.000000,0.000000,0.000000,0.000000,0.000000,0.000000
3431.103150,0.918700,-0.330800,0.140000,21.000000,23.000000,12.000000,0.000000,0.000000,0.000000,0.000000,0.000000,0.000000,0.000000
3431.147190,0.914700,-0.335200,0.140000,21.000000,23.000000,12.000000,0.000000,0.000000,0.000000,0.000000,0.000000,0.000000,0.000000
3431.178353,0.910600,-0.339400,0.140000,21.000000,23.000000,12.000000,0.000000,0.000000,0.000000,0.000000,0.000000,0.000000,0.000000
3431.218787,0.906400,-0.343300,0.140000,21.000000,23.000000,12.000000,0.000000,0.000000,0.000000,0.000000,0.000000,0.000000,0.000000
3431.287182,0.902100,-0.347000,0.140000,21.000000,23.000000,12.000000,0.000000,0.000000,0.000000,0.000000,0.000000,0.000000,0.000000
3431.293187,0.897800,-0.350400,0.140000,21.000000,23.000000,12.000000,0.000000,0.000000,0.000000,0.000000,0.000000,0.000000,0.000000
3431.334224,0.893300,-0.353500,0.140000,21.000000,23.000000,12.000000,0.000000,0.000000,0.000000,0.000000,0.000000,0.000000,0.000000
3431.370939,0.888800,-0.356400,0.140000,21.000000,23.000000,12.000000,0.000000,0.000000,0.000000,0.000000,0.000000,0.000000,0.000000
3431.411940,0.884200,-0.358900,0.140000,21.000000,23.000000,12.000000,0.000000,0.000000,0.000000,0.000000,0.000000,0.000000,0.000000
3431.462195,0.879400,-0.361200,0.140000,21.000000,23.000000,12.000000,0.000000,0.000000,0.000000,0.000000,0.000000,0.000000,0.000000
3431.507235,0.874600,-0.363200,0.140000,21.000000,23.000000,12.000000,0.000000,0.000000,0.000000,0.000000,0.000000,0.000000,0.000000
3431.526441,0.869700,-0.364900,0.140000,21.000000,23.000000,12.000000,0.000000,0.000000,0.000000,0.000000,0.000000,0.000000,0.000000
3431.563363,0.864800,-0.366400,0.140000,21.000000,23.000000,12.000000,0.000000,0.000000,0.000000,0.000000,0.000000,0.000000,0.000000
3431.599817,0.859700,-0.367500,0.140000,21.000000,23.000000,12.000000,0.000000,0.000000,0.000000,0.000000,0.000000,0.000000,0.000000
3431.642856,0.854500,-0.368300,0.140000,21.000000,23.000000,12.000000,0.000000,0.000000,0.000000,0.000000,0.000000,0.000000,0.000000
3431.687897,0.849300,-0.368800,0.140000,21.000000,23.000000,12.000000,0.000000,0.000000,0.000000,0.000000,0.000000,0.000000,0.000000
3431.719361,0.844000,-0.369000,0.140000,21.000000,23.000000,12.000000,0.000000,0.000000,0.000000,0.000000,0.000000,0.000000,0.000000
3431.755942,0.838600,-0.368900,0.140000,21.000000,23.000000,12.000000,0.000000,0.000000,0.000000,0.000000,0.000000,0.000000,0.000000
3431.821579,0.833100,-0.368500,0.140000,21.000000,23.000000,12.000000,0.000000,0.000000,0.000000,0.000000,0.000000,0.000000,0.000000
3431.833590,0.827500,-0.367800,0.140000,21.000000,23.000000,12.000000,0.000000,0.000000,0.000000,0.000000,0.000000,0.000000,0.000000
3431.873628,0.821900,-0.366700,0.140000,21.000000,23.000000,12.000000,0.000000,0.000000,0.000000,0.000000,0.000000,0.000000,0.000000
3431.911491,0.816100,-0.365400,0.140000,21.000000,23.000000,12.000000,0.000000,0.000000,0.000000,0.000000,0.000000,0.000000,0.000000
3431.947406,0.810300,-0.363700,0.140000,21.000000,23.000000,12.000000,0.000000,0.000000,0.000000,0.000000,0.000000,0.000000,0.000000
3432.001149,0.804400,-0.361700,0.140000,21.000000,23.000000,12.000000,0.000000,0.000000,0.000000,0.000000,0.000000,0.000000,0.000000
3432.046192,0.798400,-0.359400,0.140000,21.000000,23.000000,12.000000,0.000000,0.000000,0.000000,0.000000,0.000000,0.000000,0.000000
3432.063360,0.792400,-0.356700,0.140000,21.000000,23.000000,12.000000,0.000000,0.000000,0.000000,0.000000,0.000000,0.000000,0.000000
3432.104360,0.786200,-0.353700,0.140000,21.000000,23.000000,12.000000,0.000000,0.000000,0.000000,0.000000,0.000000,0.000000,0.000000
3432.140941,0.780000,-0.350400,0.140000,21.000000,23.000000,12.000000,0.000000,0.000000,0.000000,0.000000,0.000000,0.000000,0.000000
3432.182161,0.773700,-0.346800,0.140000,21.000000,23.000000,12.000000,0.000000,0.000000,0.000000,0.000000,0.000000,0.000000,0.000000
3432.226201,0.767300,-0.342900,0.140000,21.000000,23.000000,12.000000,0.000000,0.000000,0.000000,0.000000,0.000000,0.000000,0.000000
3432.255238,0.760900,-0.338600,0.140000,21.000000,23.000000,12.000000,0.000000,0.000000,0.000000,0.000000,0.000000,0.000000,0.000000
3432.292786,0.754400,-0.334000,0.140000,21.000000,23.000000,12.000000,0.000000,0.000000,0.000000,0.000000,0.000000,0.000000,0.000000
3432.361169,0.747800,-0.329000,0.140000,21.000000,23.000000,12.000000,0.000000,0.000000,0.000000,0.000000,0.000000,0.000000,0.000000
3432.372179,0.741100,-0.323700,0.140000,21.000000,23.000000,12.000000,0.000000,0.000000,0.000000,0.000000,0.000000,0.000000,0.000000
3432.411214,0.734300,-0.318100,0.140000,21.000000,23.000000,12.000000,0.000000,0.000000,0.000000,0.000000,0.000000,0.000000,0.000000
3432.448379,0.727500,-0.312200,0.140000,21.000000,23.000000,12.000000,0.000000,0.000000,0.000000,0.000000,0.000000,0.000000,0.000000
3432.484843,0.720600,-0.305900,0.140000,21.000000,23.000000,12.000000,0.000000,0.000000,0.000000,0.000000,0.000000,0.000000,0.000000
3432.543813,0.713600,-0.299300,0.140000,21.000000,23.000000,12.000000,0.000000,0.000000,0.000000,0.000000,0.000000,0.000000,0.000000
3432.589855,0.706600,-0.292400,0.140000,21.000000,23.000000,12.000000,0.000000,0.000000,0.000000,0.000000,0.000000,0.000000,0.000000
3432.602867,0.699500,-0.285100,0.140000,21.000000,23.000000,12.000000,0.000000,0.000000,0.000000,0.000000,0.000000,0.000000,0.000000
3432.640842,0.692300,-0.277500,0.140000,21.000000,23.000000,12.000000,0.000000,0.000000,0.000000,0.000000,0.000000,0.000000,0.000000
3432.677417,0.685100,-0.269600,0.140000,21.000000,23.000000,12.000000,0.000000,0.000000,0.000000,0.000000,0.000000,0.000000,0.000000
3432.720174,0.677700,-0.261400,0.140000,21.000000,23.000000,12.000000,0.000000,0.000000,0.000000,0.000000,0.000000,0.000000,0.000000
3432.763228,0.670300,-0.252800,0.140000,21.000000,23.000000,12.000000,0.000000,0.000000,0.000000,0.000000,0.000000,0.000000,0.000000
3432.796386,0.662900,-0.243900,0.140000,21.000000,23.000000,12.000000,0.000000,0.000000,0.000000,0.000000,0.000000,0.000000,0.000000
3432.833384,0.655400,-0.234700,0.140000,21.000000,23.000000,12.000000,0.000000,0.000000,0.000000,0.000000,0.000000,0.000000,0.000000
3432.894534,0.647800,-0.225200,0.140000,21.000000,23.000000,12.000000,0.000000,0.000000,0.000000,0.000000,0.000000,0.000000,0.000000
3432.933558,0.640100,-0.215300,0.140000,21.000000,23.000000,12.000000,0.000000,0.000000,0.000000,0.000000,0.000000,0.000000,0.000000
3432.948582,0.632400,-0.205200,0.140000,21.000000,23.000000,12.000000,0.000000,0.000000,0.000000,0.000000,0.000000,0.000000,0.000000
3432.984811,0.624600,-0.194700,0.140000,21.000000,23.000000,12.000000,0.000000,0.000000,0.000000,0.000000,0.000000,0.000000,0.000000
3433.025504,0.616800,-0.183900,0.140000,21.000000,23.000000,12.000000,0.000000,0.000000,0.000000,0.000000,0.000000,0.000000,0.000000
3433.076183,0.608900,-0.172800,0.140000,21.000000,23.000000,12.000000,0.000000,0.000000,0.000000,0.000000,0.000000,0.000000,0.000000
3433.121224,0.600900,-0.161400,0.140000,21.000000,23.000000,12.000000,0.000000,0.000000,0.000000,0.000000,0.000000,0.000000,0.000000
3433.140241,0.592900,-0.149600,0.140000,21.000000,23.000000,12.000000,0.000000,0.000000,0.000000,0.000000,0.000000,0.000000,0.000000
3433.177303,0.584800,-0.137600,0.140000,21.000000,23.000000,12.000000,0.000000,0.000000,0.000000,0.000000,0.000000,0.000000,0.000000
3433.239168,0.576700,-0.125300,0.140000,21.000000,23.000000,12.000000,0.000000,0.000000,0.000000,0.000000,0.000000,0.000000,0.000000
3433.257185,0.568500,-0.112700,0.140000,21.000000,23.000000,12.000000,0.000000,0.000000,0.000000,0.000000,0.000000,0.000000,0.000000
3433.301225,0.560200,-0.099800,0.140000,21.000000,23.000000,12.000000,0.000000,0.000000,0.000000,0.000000,0.000000,0.000000,0.000000
3433.332819,0.551900,-0.086600,0.140000,21.000000,23.000000,12.000000,0.000000,0.000000,0.000000,0.000000,0.000000,0.000000,0.000000
3433.369820,0.543600,-0.073100,0.140000,21.000000,23.000000,12.000000,0.000000,0.000000,0.000000,0.000000,0.000000,0.000000,0.000000
3433.434900,0.535100,-0.059400,0.140000,21.000000,23.000000,12.000000,0.000000,0.000000,0.000000,0.000000,0.000000,0.000000,0.000000
3433.447898,0.526700,-0.045300,0.140000,21.000000,23.000000,12.000000,0.000000,0.000000,0.000000,0.000000,0.000000,0.000000,0.000000
3433.483944,0.518100,-0.031000,0.140000,21.000000,23.000000,12.000000,0.000000,0.000000,0.000000,0.000000,0.000000,0.000000,0.000000
3433.525401,0.509600,-0.016400,0.140000,21.000000,23.000000,12.000000,0.000000,0.000000,0.000000,0.000000,0.000000,0.000000,0.000000
3433.562401,0.500900,-0.001600,0.140000,21.000000,23.000000,12.000000,0.000000,0.000000,0.000000,0.000000,0.000000,0.000000,0.000000
3433.616674,0.492200,0.013500,0.140000,21.000000,23.000000,12.000000,0.000000,0.000000,0.000000,0.000000,0.000000,0.000000,0.000000
3433.661216,0.483500,0.028900,0.140000,21.000000,23.000000,12.000000,0.000000,0.000000,0.000000,0.000000,0.000000,0.000000,0.000000
3433.678232,0.474700,0.044500,0.140000,21.000000,23.000000,12.000000,0.000000,0.000000,0.000000,0.000000,0.000000,0.000000,0.000000
3433.713826,0.465900,0.060300,0.140000,21.000000,23.000000,12.000000,0.000000,0.000000,0.000000,0.000000,0.000000,0.000000,0.000000
3433.750318,0.457000,0.076400,0.140000,21.000000,23.000000,12.000000,0.000000,0.000000,0.000000,0.000000,0.000000,0.000000,0.000000
3433.816500,0.448100,0.092700,0.140000,21.000000,23.000000,12.000000,0.000000,0.000000,0.000000,0.000000,0.000000,0.000000,0.000000
3433.824506,0.439200,0.109300,0.140000,21.000000,23.000000,12.000000,0.000000,0.000000,0.000000,0.000000,0.000000,0.000000,0.000000
3433.863078,0.430200,0.126100,0.140000,21.000000,23.000000,12.000000,0.000000,0.000000,0.000000,0.000000,0.000000,0.000000,0.000000
3433.898134,0.421100,0.143100,0.140000,21.000000,23.000000,12.000000,0.000000,0.000000,0.000000,0.000000,0.000000,0.000000,0.000000
3433.939409,0.412000,0.160300,0.140000,21.000000,23.000000,12.000000,0.000000,0.000000,0.000000,0.000000,0.000000,0.000000,0.000000
3433.991194,0.402900,0.177800,0.140000,21.000000,23.000000,12.000000,0.000000,0.000000,0.000000,0.000000,0.000000,0.000000,0.000000
